millis,brake_active,aX,aY,aZ,tmp,gX,gY,gZ
3948,0,5012,-16088,2200,18.79,-1372,-788,-207
3955,0,4828,-16200,2684,18.74,-1402,-1012,-144
3962,0,4928,-16336,2680,18.79,-1487,-1066,-108
3968,0,5044,-16620,2580,18.69,-1534,-1063,-106
3975,0,5048,-16728,2624,18.69,-1602,-981,-58
3982,0,4952,-16656,2376,18.6,-1685,-847,-82
3989,0,5052,-16748,2260,18.74,-1725,-819,12
3996,0,4888,-16696,1956,18.65,-1726,-748,17
4002,0,4908,-16400,1948,18.74,-1762,-768,24
4011,0,4700,-16268,2084,18.84,-1915,-778,3
4018,0,4664,-16248,1792,18.69,-1951,-836,28
4025,0,4648,-16152,1804,18.84,-2009,-829,16
4032,0,4680,-15928,1820,18.74,-2113,-880,15
4038,0,4360,-15880,2136,18.69,-2184,-819,27
4045,0,4348,-15944,1480,18.69,-2250,-758,18
4053,0,4328,-15928,1372,18.74,-2303,-721,19
4060,0,4336,-15988,1348,18.69,-2362,-638,4
4068,0,4400,-16188,1572,18.69,-2397,-641,-9
4075,0,4240,-16268,1376,18.74,-2465,-509,-59
4082,0,4184,-16164,1312,18.74,-2486,-443,-37
4089,0,4376,-16224,1028,18.69,-2514,-392,-60
4096,0,4248,-16304,1144,18.74,-2504,-353,-98
4102,0,4140,-16464,716,18.69,-2461,-316,-124
4109,0,4284,-16376,556,18.65,-2424,-382,-116
4116,0,4420,-16396,844,18.74,-2378,-455,-172
4123,0,4548,-16460,572,18.79,-2319,-500,-163
4132,0,4376,-16452,1008,18.6,-2324,-516,-186
4138,0,4332,-16392,792,18.74,-2350,-458,-196
4145,0,4212,-16288,992,18.69,-2311,-317,-179
4152,0,4156,-16232,652,18.65,-2321,-258,-193
4159,0,4184,-16092,868,18.74,-2299,-227,-208
4166,0,4272,-16028,756,18.69,-2335,-218,-221
4173,0,3964,-16240,864,18.74,-2361,-247,-247
4200,0,4032,-16124,704,18.69,-2386,-236,-352
4208,0,4156,-16184,748,18.79,-2352,-250,-373
4215,0,4044,-16368,604,18.84,-2372,-254,-370
4222,0,4040,-16472,668,18.79,-2390,-248,-410
4229,0,4056,-16428,920,18.84,-2435,-256,-426
4236,0,4260,-16568,704,18.84,-2417,-196,-439
4243,0,4340,-16568,464,18.79,-2354,-202,-466
4250,0,4360,-16364,868,18.69,-2415,-267,-488
4257,0,4472,-16520,648,18.74,-2392,-310,-484
4264,0,4420,-16676,608,18.69,-2412,-376,-447
4273,0,4528,-16448,728,18.84,-2389,-453,-447
4280,0,4488,-16364,868,18.69,-2438,-460,-436
4287,0,4464,-16328,984,18.69,-2473,-483,-467
4294,0,4560,-16296,1016,18.65,-2537,-476,-469
4301,0,4420,-16392,1012,18.74,-2546,-456,-442
4308,0,4488,-16180,940,18.79,-2601,-493,-424
4315,0,4472,-16224,764,18.79,-2636,-524,-408
4321,0,4576,-16184,884,18.84,-2698,-591,-435
4330,0,4500,-16296,820,18.79,-2701,-697,-418
4337,0,4532,-16316,800,18.79,-2738,-637,-360
4344,0,4508,-16400,548,18.69,-2789,-704,-372
4351,0,4464,-16528,332,18.69,-2812,-716,-383
4358,0,4616,-16328,288,18.88,-2816,-800,-360
4365,0,4628,-16320,128,18.69,-2805,-903,-356
4372,0,4752,-16248,296,18.74,-2747,-1018,-300
4379,0,4608,-16060,668,18.65,-2861,-939,-295
4386,0,4552,-16340,84,18.79,-2834,-891,-308
4395,0,4396,-16412,-244,18.74,-2818,-886,-307
4408,0,4324,-16428,-268,18.79,-2792,-810,-323
4419,0,4352,-16200,-348,18.74,-2781,-833,-327
4430,0,4404,-16224,-772,18.74,-2738,-840,-304
4442,0,4400,-16080,-920,18.79,-2653,-855,-326
4454,0,4156,-16132,-892,18.84,-2599,-808,-367
4466,0,4228,-16108,-1312,18.88,-2502,-668,-362
4478,0,4492,-15828,-1664,18.74,-2341,-676,-361
4502,0,4884,-15728,-2604,18.84,-1808,-815,-296
4524,0,4628,-15872,-2496,18.84,-1528,-167,-185
4533,0,4488,-15900,-2264,18.79,-1405,40,-154
4543,0,4660,-15928,-1956,18.74,-1253,72,-92
4552,0,4784,-15980,-2144,18.79,-1167,103,-73
4561,0,4676,-15956,-1936,18.88,-1047,-24,-97
4569,0,4536,-15736,-2132,18.74,-950,-159,-87
4578,0,4324,-15836,-1972,18.88,-855,-225,-115
4587,0,4532,-15932,-1732,18.79,-847,-108,-126
4598,0,4552,-15916,-1856,18.69,-752,31,-152
4607,0,4676,-15952,-1676,18.79,-626,72,-150
4617,0,4636,-16072,-1552,18.79,-526,68,-125
4626,0,4764,-16148,-1144,18.84,-496,137,-146
4635,0,4736,-16392,-1008,18.84,-447,237,-145
4644,0,4552,-16324,-944,18.79,-410,320,-149
4654,0,4656,-16412,-548,18.69,-457,383,-151
4663,0,4644,-16368,-460,18.84,-422,388,-146
4675,0,4664,-16364,-468,18.79,-457,301,-183
4684,0,4652,-16316,-384,18.74,-443,204,-149
4693,0,4664,-16128,-336,18.84,-452,195,-178
4702,0,4584,-16188,-424,18.88,-464,196,-194
4711,0,4664,-16184,-356,18.74,-494,206,-135
4720,0,4596,-16272,-356,18.84,-482,195,-141
4729,0,4616,-16332,-340,18.84,-461,179,-143
4738,0,4668,-16352,-420,18.69,-478,223,-117
4747,0,4608,-16328,-388,18.79,-419,207,-90
4759,0,4516,-16200,-320,18.79,-468,209,-75
4768,0,4416,-16372,-276,18.79,-457,255,-95
4777,0,4640,-16380,-140,18.84,-505,276,-55
4799,0,4568,-16376,-264,18.74,-527,261,1
4808,0,4376,-16256,-396,18.74,-503,302,-5
4817,0,4484,-16468,-88,18.84,-575,302,-29
4826,0,4384,-16436,-56,18.79,-554,291,-23
4835,0,4472,-16376,-156,18.79,-575,258,-61
4847,0,4304,-16384,0,18.84,-652,215,-52
4856,0,4276,-16440,136,18.88,-712,228,-45
4865,0,4340,-16500,328,18.79,-811,195,-52
4875,0,4384,-16480,152,18.84,-895,136,-125
4885,0,4332,-16464,-12,18.88,-950,28,-127
4894,0,4252,-16396,-160,18.84,-936,-75,-146
4903,0,4344,-16320,-164,18.84,-928,-90,-174
4912,0,4304,-16348,-76,18.84,-1025,-86,-199
4921,0,4416,-16504,-216,18.84,-1058,-132,-218
4932,0,4288,-16364,-208,18.74,-1114,-170,-227
4942,0,4336,-16452,-280,18.88,-1184,-163,-244
4951,0,4428,-16424,-220,18.79,-1240,-238,-271
4960,0,4400,-16364,-172,18.74,-1293,-221,-256
4969,0,4344,-16500,-384,18.84,-1327,-212,-261
4978,0,4416,-16320,-340,18.88,-1360,-212,-264
4988,0,4360,-16276,-500,18.84,-1365,-251,-309
4997,0,4404,-16340,-580,18.79,-1298,-212,-287
5006,0,4464,-16244,-628,18.84,-1319,-259,-264
5017,0,4532,-16192,-532,18.74,-1269,-277,-237
5026,0,4496,-16328,-972,18.84,-1163,-272,-261
5036,0,4524,-16208,-1056,18.79,-1105,-266,-248
5045,0,4488,-16116,-1108,18.84,-1073,-259,-208
5054,0,4540,-16056,-1228,18.79,-1008,-215,-204
5076,0,4496,-16036,-964,18.84,-942,-112,-166
5086,0,4356,-16156,-896,18.84,-945,-78,-183
5095,0,4252,-16216,-1012,18.84,-970,-75,-137
5106,0,4296,-16236,-1084,18.79,-946,-15,-164
5115,0,4196,-16188,-720,18.79,-927,-20,-189
5125,0,4368,-16404,-844,18.79,-880,-29,-215
5134,0,4480,-16324,-868,18.93,-869,-62,-193
5143,0,4408,-16348,-488,18.88,-924,-70,-230
5152,0,4316,-16352,-500,18.79,-875,-48,-230
5161,0,4368,-16364,-1044,18.79,-806,-14,-234
5170,0,4580,-16264,-768,18.74,-809,-80,-249
5179,0,4576,-16212,-668,18.79,-854,-116,-252
5198,0,4572,-16256,-588,18.74,-872,-122,-265
5207,0,4696,-16288,-716,18.88,-920,-122,-225
5216,0,4700,-16212,-712,18.79,-915,-103,-213
5225,0,4644,-16152,-980,18.84,-913,-59,-213
5234,0,4536,-16140,-944,18.79,-885,-28,-219
5243,0,4540,-16196,-904,18.84,-879,-9,-209
5253,0,4524,-16276,-732,18.88,-883,-5,-217
5262,0,4548,-16272,-820,18.84,-837,-30,-183
5273,0,4500,-16360,-912,18.88,-812,-43,-193
5282,0,4576,-16220,-1004,18.84,-749,-43,-225
5292,0,4508,-16236,-920,18.93,-726,4,-185
5301,0,4420,-16184,-1000,18.88,-701,38,-194
5310,0,4352,-16204,-860,18.79,-662,65,-182
5319,0,4480,-16260,-700,18.79,-670,80,-206
5329,0,4552,-16268,-620,18.84,-693,105,-170
5338,0,4544,-16340,-664,18.88,-671,114,-188
5360,0,4568,-16212,-724,18.88,-624,142,-173
5371,0,4500,-16244,-620,18.88,-557,130,-121
5381,0,4516,-16040,-880,18.98,-544,109,-157
5390,0,4364,-16148,-912,18.84,-522,118,-128
5399,0,4408,-16256,-824,18.93,-477,122,-155
5408,0,4468,-16232,-908,18.84,-493,149,-160
5417,0,4436,-16364,-980,18.79,-484,141,-150
5426,0,4452,-16292,-976,18.93,-443,187,-178
5436,0,4472,-16288,-864,18.84,-461,194,-162
5447,0,4444,-16296,-748,18.88,-441,229,-141
5456,0,4360,-16292,-672,18.93,-436,268,-149
5466,0,4412,-16232,-444,18.88,-474,194,-161
5475,0,4504,-16172,-544,18.93,-470,224,-139
5484,0,4392,-16324,-572,18.88,-469,200,-118
5493,0,4436,-16336,-540,18.88,-461,200,-141
5503,0,4432,-16428,-464,18.84,-437,168,-151
5512,0,4428,-16396,-656,18.88,-407,113,-172
5521,0,4456,-16400,-512,18.84,-474,121,-175
5533,0,4428,-16288,-548,18.93,-471,90,-175
5542,0,4492,-16208,-552,18.88,-468,80,-154
5551,0,4392,-16288,-520,18.84,-501,123,-148
5560,0,4452,-16348,-368,18.88,-508,100,-154
5569,0,4324,-16192,-448,18.79,-500,129,-137
5578,0,4436,-16236,-396,18.88,-514,123,-181
5588,0,4492,-16372,-544,18.93,-521,116,-174
5597,0,4428,-16288,-356,18.84,-526,135,-133
5608,0,4344,-16380,-472,18.93,-501,158,-146
5631,0,4416,-16380,-292,18.93,-542,126,-174
5640,0,4320,-16372,-184,18.88,-546,72,-175
5649,0,4376,-16384,-324,18.88,-514,103,-134
5658,0,4348,-16356,-536,18.88,-503,100,-163
5668,0,4416,-16276,-620,18.93,-433,124,-164
5677,0,4436,-16252,-464,18.98,-419,129,-196
5686,0,4356,-16272,-268,18.79,-476,126,-194
5697,0,4516,-16268,-340,18.93,-524,115,-194
5708,0,4600,-16292,-256,18.79,-511,89,-178
5717,0,4676,-16252,-252,18.88,-537,85,-196
5727,0,4664,-16192,-160,18.88,-604,56,-194
5736,0,4652,-16364,-132,18.84,-648,20,-139
5745,0,4628,-16584,160,18.88,-630,3,-141
5754,0,4596,-16320,28,18.88,-694,45,-141
5764,0,4424,-16332,-96,18.98,-734,82,-119
5773,0,4496,-16124,28,18.84,-732,49,-139
5785,0,4364,-16360,492,18.88,-893,-36,-188
5798,0,4400,-16532,508,18.88,-1098,-183,-172
5811,0,4428,-16680,236,18.98,-1161,-102,-243
5825,0,4400,-16636,464,18.84,-1135,-136,-242
5838,0,4660,-16572,-72,18.88,-1208,-101,-251
5851,0,4388,-16536,164,18.88,-1245,-228,-272
5863,0,4348,-16412,-124,18.93,-1232,-241,-279
5875,0,4156,-16332,-272,18.93,-1211,-190,-296
5887,0,4096,-16244,-268,18.88,-1241,-122,-331
5909,0,4532,-16196,-48,18.84,-1334,-213,-354
5918,0,4492,-16304,-284,18.79,-1354,-311,-329
5927,0,4596,-16344,-536,18.98,-1320,-286,-312
5935,0,4600,-16144,-552,18.93,-1338,-241,-278
5944,0,4648,-16328,-500,18.84,-1305,-205,-244
5966,0,5324,-16248,-604,19.02,-1294,-212,-224
5975,0,4496,-16240,-224,18.98,-1308,-396,-234
5984,0,4608,-16236,-972,18.88,-1330,-195,-202
5995,0,4416,-16288,-560,18.84,-1310,-282,-181
6004,0,4356,-16376,-600,18.88,-1348,-166,-212
6013,0,4392,-16284,-972,18.84,-1277,-210,-191
6022,0,4360,-16332,-1000,18.88,-1272,-197,-221
6031,0,4348,-16272,-1008,18.84,-1212,-183,-225
6044,0,4228,-16316,-772,18.93,-1231,-139,-278
6053,0,4416,-16328,-660,18.98,-1268,-166,-297
6062,0,4448,-16252,-480,18.84,-1327,-254,-305
6071,0,4604,-16296,-728,18.88,-1323,-275,-330
6083,0,4612,-16264,-800,18.84,-1321,-357,-309
6092,0,4500,-16228,-720,18.84,-1349,-327,-282
6101,0,4588,-16060,-500,18.98,-1367,-224,-254
6110,0,4372,-16304,-628,18.88,-1305,-169,-266
6119,0,4588,-16188,-592,18.88,-1330,-210,-260
6128,0,4560,-16204,-676,18.98,-1350,-244,-272
6138,0,4524,-16236,-880,18.84,-1353,-232,-251
6147,0,4368,-16232,-840,18.88,-1325,-218,-246
6159,0,4276,-16152,-796,18.84,-1282,-144,-275
6168,0,4456,-16176,-940,18.88,-1303,-188,-306
6177,0,4524,-16276,-744,18.93,-1258,-212,-276
6186,0,4452,-16332,-832,18.88,-1270,-250,-272
6195,0,4396,-16320,-960,18.88,-1237,-184,-254
6205,0,4476,-16352,-1344,18.88,-1144,-100,-232
6214,0,4396,-16216,-1416,18.88,-1022,-23,-249
6223,0,4352,-16060,-1432,18.84,-964,-5,-258
6245,0,4528,-16116,-1328,18.88,-836,6,-240
6256,0,4488,-16052,-1312,18.98,-793,-66,-187
6265,0,4452,-16024,-1552,18.88,-749,-9,-237
6274,0,4500,-15932,-1940,18.93,-614,98,-175
6283,0,4600,-16068,-1884,18.84,-529,139,-197
6292,0,4584,-16080,-1832,18.84,-461,160,-189
6302,0,4628,-16160,-1664,18.84,-380,165,-126
6311,0,4600,-16216,-1624,18.93,-332,191,-121
6320,0,4684,-16180,-1540,18.98,-314,162,-119
6329,0,4636,-16160,-1396,18.88,-283,159,-55
6340,0,4588,-15996,-1452,18.98,-273,198,-54
6349,0,4460,-16076,-1308,18.93,-201,201,-82
6359,0,4572,-16140,-1156,18.93,-204,259,-61
6368,0,4516,-16288,-916,18.93,-242,226,-71
6377,0,4424,-16364,-600,18.88,-254,301,-106
6386,0,4524,-16304,-528,18.88,-331,282,-116
6395,0,4464,-16332,-652,18.88,-306,268,-102
6404,0,4404,-16368,-472,19.02,-296,219,-141
6415,0,4404,-16432,-460,18.88,-317,197,-159
6424,0,4516,-16304,-556,18.88,-329,187,-105
6434,0,4448,-16312,-508,18.93,-315,178,-113
6443,0,4464,-16276,-268,18.84,-337,151,-160
6452,0,4504,-16312,-496,18.88,-391,158,-147
6461,0,4480,-16416,-324,18.88,-421,148,-133
6470,0,4424,-16408,-336,18.88,-414,134,-139
6479,0,4488,-16368,-228,18.93,-462,140,-120
6488,0,4636,-16368,-148,18.93,-481,187,-98
6500,0,4400,-16524,288,18.84,-527,138,-98
6522,0,4308,-16488,580,18.88,-771,147,-68
6531,0,4164,-16456,140,18.93,-821,143,-119
6540,0,4236,-16316,-648,18.84,-698,120,-137
6549,0,4312,-16472,-980,18.93,-546,104,-114
6558,0,4044,-16448,-496,18.88,-644,131,-148
6567,0,4056,-16476,300,18.88,-657,185,-168
6576,0,4308,-16488,416,18.98,-761,81,-214
6595,0,4148,-16456,-692,18.93,-805,-128,-271
6604,0,4176,-16352,-556,18.98,-794,-15,-263
6613,0,4420,-16392,-148,18.98,-865,77,-301
6622,0,4488,-16332,-80,18.88,-975,0,-285
6631,0,4516,-16272,-304,18.93,-973,-109,-271
6640,0,4604,-16284,-544,18.88,-1002,-100,-266
6649,0,4488,-16304,-564,18.93,-1003,-59,-241
6658,0,4456,-16328,-732,18.93,-1029,-60,-240
6667,0,4552,-16344,-628,18.93,-1016,-121,-254
6679,0,4500,-16496,-556,18.93,-1069,-160,-280
6688,0,4416,-16364,-692,18.88,-1112,-186,-253
6697,0,4480,-15912,-732,18.88,-1184,-240,-234
6706,0,4472,-16480,-620,18.88,-1173,-219,-240
6716,0,4508,-16296,-732,18.93,-1133,-162,-256
6725,0,4492,-16332,-556,18.88,-1199,-243,-243
6734,0,4308,-16292,-580,18.93,-1147,-229,-229
6743,0,4352,-16264,-752,18.88,-1150,-166,-266
6755,0,4204,-16248,-836,18.88,-1198,-86,-274
6764,0,4228,-16208,-776,18.93,-1142,-108,-275
6773,0,4300,-16304,-844,18.88,-1104,-152,-298
6795,0,4544,-16308,-656,18.93,-1188,-355,-289
6804,0,4684,-16312,-732,18.88,-1132,-321,-261
6813,0,4752,-16256,-944,18.93,-1053,-265,-209
6822,0,4560,-16200,-880,18.98,-1020,-176,-158
6831,0,4496,-16280,-908,18.98,-1025,-120,-126
6841,0,4808,-16076,-836,18.98,-991,-77,-114
6852,0,4928,-15848,-1128,18.88,-919,-169,-70
6861,0,4692,-16224,-876,18.93,-898,-113,-32
6870,0,4316,-16484,-852,18.88,-856,14,-19
6880,0,4088,-16396,-1024,18.93,-883,215,-49
6889,0,3972,-16532,-1040,18.88,-934,370,-59
6898,0,3960,-16436,-1128,18.84,-881,412,-133
6907,0,3992,-16392,-1124,18.98,-849,257,-183
6917,0,3900,-16432,-804,18.88,-808,131,-263
6929,0,3672,-16364,-836,18.93,-786,142,-316
6938,0,3656,-16400,-1076,18.98,-683,311,-422
6947,0,3496,-16264,-1252,18.93,-653,403,-468
6956,0,3708,-16168,-1232,18.88,-591,477,-538
6966,0,4032,-16368,-1112,18.98,-602,446,-571
6975,0,4636,-16348,-856,19.02,-593,288,-591
6984,0,4692,-16256,-752,18.79,-647,41,-603
6993,0,4792,-16320,-396,18.93,-705,-84,-571
7002,0,4888,-16396,-568,18.98,-698,-54,-528
7014,0,5184,-16408,-672,18.88,-687,-40,-441
7023,0,5292,-16372,-300,18.84,-755,-29,-345
7032,0,5360,-16244,-312,18.93,-814,-50,-258
7042,0,5408,-16288,-532,19.07,-736,-57,-156
7051,0,5088,-16312,-296,18.98,-882,-112,-131
7073,0,4540,-16412,-268,18.88,-1026,-154,-33
7082,0,4416,-16412,-436,18.88,-1029,-146,-29
7091,0,4312,-16480,-452,18.93,-1069,-184,-79
7103,0,4360,-16480,-340,18.93,-1141,-255,-102
7112,0,4160,-16488,-352,18.93,-1206,-342,-151
7122,0,4152,-16516,-552,18.98,-1216,-362,-168
7131,0,4244,-16672,-968,18.93,-1103,-355,-212
7141,0,4272,-16372,-532,18.98,-1247,-314,-231
7150,0,4204,-16408,-504,18.88,-1237,-255,-273
7159,0,4132,-16336,-640,18.88,-1235,-244,-263
7168,0,4368,-16336,-608,19.02,-1261,-256,-304
7178,0,4412,-16224,-596,19.02,-1275,-291,-336
7190,0,4576,-16252,-504,18.84,-1361,-339,-314
7203,0,4540,-16332,-752,18.98,-1360,-337,-328
7216,0,4660,-16392,-700,18.93,-1344,-252,-267
7230,0,4500,-16228,-860,18.98,-1372,-178,-246
7243,0,4264,-16164,-1168,18.93,-1295,-107,-266
7256,0,4276,-16172,-868,18.93,-1291,-41,-297
7267,0,4440,-16328,-912,19.07,-1278,-84,-291
7280,0,4476,-16224,-1088,18.88,-1278,-240,-357
7301,0,4740,-16196,-1396,18.98,-1219,-279,-307
7309,0,4800,-16200,-1284,19.07,-1249,-257,-294
7318,0,4936,-16140,-1260,18.98,-1202,-245,-218
7327,0,4772,-16028,-1468,18.98,-1182,-311,-186
7336,0,4744,-15980,-1580,18.98,-1119,-241,-145
7345,0,4732,-16060,-1484,18.88,-1122,-199,-144
7353,0,4552,-16092,-1712,19.02,-1080,-135,-141
7362,0,3980,-16176,-52,18.93,-1052,-261,-57
7371,0,4332,-16304,-1248,18.88,-1276,236,-174
7395,0,4504,-16120,-1532,18.93,-1035,-243,-203
7404,0,4316,-16368,-748,18.93,-998,-77,-165
7413,0,4328,-16536,-1000,18.93,-1055,-59,-177
7422,0,4804,-16232,-1468,18.93,-1046,-124,-210
7431,0,4644,-16084,-1588,18.98,-1091,-226,-219
7440,0,4488,-16028,-1328,18.88,-1035,-213,-226
7449,0,4500,-16148,-1124,18.88,-1003,-93,-187
7458,0,4620,-16216,-1048,18.88,-972,-69,-161
7469,0,4572,-16252,-1200,18.88,-1002,-118,-185
7478,0,4380,-16144,-964,18.88,-1028,-94,-166
7487,0,4300,-16324,-1160,18.93,-1016,-117,-157
7496,0,4244,-16460,-1016,18.98,-1105,-124,-156
7506,0,4272,-16552,-1608,18.98,-1082,192,-206
7515,0,3752,-16740,-1724,18.98,-993,300,-246
7524,0,4012,-16536,128,18.98,-960,114,-250
7533,0,4536,-16528,-584,18.88,-1098,351,-353
7545,0,4392,-16252,-780,18.98,-941,-77,-300
7556,0,3952,-16160,-2088,18.98,-726,-376,-325
7565,0,4464,-16096,-644,18.98,-945,-259,-302
7574,0,5344,-15908,-1684,18.98,-987,-258,-304
7583,0,5124,-15720,-1704,18.93,-745,-376,-250
7592,0,4644,-16380,-1240,18.93,-715,-370,-132
7602,0,4708,-16424,-544,19.07,-787,206,-40
7611,0,4628,-16260,-1776,18.98,-850,352,-73
7620,0,3952,-16868,-2672,18.98,-723,53,-142
7629,0,4240,-16516,-1592,18.98,-656,-55,-136
7641,0,4900,-15536,-2120,19.02,-712,-47,-98
7651,0,4172,-15660,1252,18.98,-747,-259,-58
7673,0,4468,-15976,-2568,18.88,-592,128,-264
7682,0,4420,-16192,-2032,18.98,-554,72,-272
7691,0,4580,-16448,-1964,18.93,-471,-117,-260
7700,0,4328,-16460,-348,18.93,-570,-205,-233
7709,0,4524,-16420,-1952,18.93,-548,117,-263
7718,0,4504,-16184,-2388,18.88,-429,181,-232
7730,0,4652,-16100,-1948,18.93,-342,101,-231
7739,0,4648,-16008,-1600,18.98,-328,162,-196
7748,0,4968,-16184,-1228,19.02,-408,102,-210
7757,0,4896,-16240,-1488,18.98,-357,-17,-160
7766,0,4848,-16108,-1360,18.93,-345,13,-102
7776,0,4820,-16124,-1528,18.88,-317,102,-64
7785,0,4720,-16080,-1412,18.93,-240,128,-38
7794,0,4744,-16040,-1456,19.02,-182,160,1
7803,0,4752,-15996,-1532,19.02,-115,155,26
7814,0,4604,-16168,-1276,18.98,-58,178,56
7823,0,4488,-16224,-1268,18.93,-52,239,62
7832,0,4520,-16312,-1136,18.93,-38,264,44
7842,0,4276,-16308,-1400,18.98,40,302,67
7851,0,4300,-16128,-1612,18.93,123,405,66
7860,0,4112,-16084,-1296,19.02,198,447,7
7869,0,4388,-16052,-1312,18.98,288,487,-22
7878,0,4532,-16068,-864,18.98,255,335,35
7890,0,4288,-16204,-1436,18.98,317,319,-16
7899,0,4288,-16196,-636,18.93,299,347,-42
7908,0,4268,-16292,-1008,18.98,329,399,-32
7917,0,4364,-16272,-1300,19.02,398,442,-33
7926,0,4272,-16264,-1420,18.93,396,508,-58
7948,0,4236,-16196,-1268,18.93,497,684,-58
7957,0,4120,-16192,-808,19.02,508,705,-81
7966,0,4152,-16312,-768,18.98,509,732,-63
7975,0,4228,-16212,-1012,18.93,543,839,-112
7994,0,4284,-16284,-756,18.98,623,698,-115
8003,0,4328,-16168,-496,18.98,628,694,-113
8012,0,4368,-16172,-724,19.02,644,708,-118
8021,0,4368,-16240,-172,18.93,591,656,-91
8030,0,4520,-16308,-400,18.93,662,604,-57
8039,0,4436,-16228,36,19.07,644,554,-36
8048,0,4464,-16268,200,18.98,653,554,0
8058,0,4368,-16284,228,19.02,578,463,-5
8069,0,4204,-16408,292,18.98,509,462,0
8078,0,3940,-16408,576,18.98,482,295,21
8087,0,4308,-16272,608,19.12,392,333,-27
8097,0,4116,-16524,192,18.98,331,241,-55
8106,0,4044,-16508,564,19.07,233,393,-103
8115,0,4160,-16668,432,18.98,178,407,-29
8124,0,4192,-16664,544,18.93,96,318,-89
8133,0,4200,-16616,588,18.98,12,265,-125
8142,0,4192,-16528,608,19.07,-35,213,-121
8154,0,4288,-16304,320,18.93,-71,175,-137
8163,0,4376,-16336,92,18.98,-77,99,-165
8173,0,4280,-16280,224,19.02,-107,50,-146
8182,0,4476,-16280,368,18.98,-167,54,-121
8191,0,4404,-16344,568,18.93,-204,34,-149
8200,0,4396,-16372,524,18.98,-261,12,-144
8209,0,4480,-16344,628,19.02,-345,-33,-115
8231,0,4568,-16564,660,18.98,-513,-163,-110
8243,0,4448,-16588,528,19.02,-558,-235,-116
8252,0,4520,-16464,500,18.88,-604,-238,-84
8261,0,4412,-16444,524,18.93,-638,-187,-123
8270,0,4204,-16372,788,18.98,-729,-105,-110
8280,0,4112,-16308,592,18.88,-780,-15,-147
8289,0,4064,-16436,540,18.98,-831,16,-165
8298,0,4076,-16428,520,18.93,-873,-6,-188
8307,0,4196,-16364,556,18.98,-959,-3,-230
8316,0,4260,-16500,280,19.02,-989,-22,-225
8328,0,4172,-16440,220,18.93,-988,-13,-236
8337,0,4292,-16492,224,18.98,-1006,-9,-230
8346,0,4340,-16428,196,18.98,-1024,11,-263
8356,0,4356,-16256,120,18.88,-993,-8,-248
8365,0,4380,-16228,-100,19.02,-956,-18,-249
8374,0,4396,-16200,-92,19.07,-981,10,-233
8383,0,4484,-16120,-252,18.98,-912,-60,-226
8392,0,4608,-16144,-192,18.98,-909,-46,-219
8404,0,4588,-16232,-452,19.02,-855,-64,-200
8413,0,4608,-16228,-308,19.07,-843,-29,-165
8422,0,4600,-16324,-108,18.93,-881,-18,-127
8431,0,4516,-16264,-144,19.02,-845,-31,-99
8441,0,4524,-16356,-72,18.98,-836,-46,-85
8450,0,4468,-16420,28,19.07,-913,-61,-67
8459,0,4412,-16468,-208,19.02,-862,-14,-107
8468,0,4300,-16428,-92,19.02,-849,13,-85
8478,0,4188,-16188,-172,18.98,-832,84,-54
8502,0,4152,-16276,92,19.07,-866,49,-119
8511,0,3924,-16376,-56,19.07,-856,-16,-174
8520,0,3976,-16392,-44,19.02,-858,-40,-146
8529,0,4112,-16424,-20,18.93,-892,-35,-218
8539,0,3984,-16448,-72,18.98,-892,-31,-215
8548,0,4100,-16524,20,18.98,-865,-6,-233
8557,0,4108,-16512,76,19.02,-859,12,-266
8566,0,4144,-16420,216,18.93,-893,-21,-296
8578,0,4244,-16312,0,18.98,-858,-22,-231
8592,0,4268,-16408,48,19.02,-893,5,-272
8605,0,4264,-16332,-148,18.88,-902,-6,-237
8619,0,4248,-16368,72,18.98,-928,-34,-230
8632,0,4328,-16356,0,19.02,-918,-26,-228
8645,0,4280,-16228,-136,19.02,-868,-29,-217
8657,0,4264,-16304,-144,18.98,-840,-16,-219
8669,0,4288,-16316,-344,18.98,-856,1,-207
8681,0,4220,-16376,-216,18.98,-828,5,-210
8703,0,4036,-16304,-92,18.98,-833,-7,-250
8712,0,4128,-16324,4,18.98,-835,-4,-282
8720,0,3996,-16368,-48,19.02,-840,-3,-272
8729,0,4148,-16360,88,18.93,-852,-2,-286
8738,0,4164,-16448,12,18.98,-870,13,-343
8747,0,4072,-16368,-84,19.02,-850,-20,-281
8755,0,4084,-16504,-24,18.93,-870,-2,-349
8764,0,4272,-16396,-48,18.88,-870,-27,-348
8775,0,4324,-16380,96,18.98,-884,-66,-375
8784,0,4404,-16468,76,19.07,-898,-109,-366
8793,0,4516,-16300,164,19.02,-902,-138,-359
8802,0,4476,-16292,72,19.02,-944,-136,-305
8812,0,4608,-16184,92,19.02,-944,-138,-300
8834,0,4696,-16204,160,19.02,-1019,-203,-245
8843,0,4604,-16300,-80,18.98,-1065,-221,-197
8852,0,4492,-16272,36,19.02,-1055,-209,-181
8861,0,4560,-16328,-88,18.93,-1052,-167,-178
8872,0,4428,-16268,-84,18.93,-1059,-154,-172
8881,0,4464,-16364,-188,19.12,-1046,-142,-143
8890,0,4348,-16388,-260,18.98,-1076,-124,-145
8900,0,4308,-16416,-216,18.98,-1032,-109,-152
8909,0,4144,-16312,-156,18.88,-1052,-106,-183
8918,0,4216,-16312,-144,18.98,-1016,-88,-179
8927,0,4144,-16224,-260,18.98,-1012,-112,-206
8936,0,4128,-16296,-212,19.02,-1005,-89,-222
8945,0,4188,-16236,-264,19.07,-997,-71,-240
8956,0,4180,-16296,-240,18.98,-975,-39,-275
8965,0,4188,-16408,-156,18.93,-963,-27,-280
8975,0,4264,-16412,-280,19.02,-943,-25,-287
8984,0,4468,-16336,-116,18.98,-945,-29,-311
8993,0,4396,-16464,-76,18.98,-933,-12,-303
9002,0,4412,-16312,-52,19.07,-974,-9,-249
9011,0,4360,-16352,-100,18.98,-974,-31,-257
9020,0,4464,-16288,-84,18.98,-995,-32,-251
9031,0,4452,-16172,-12,18.93,-1001,-45,-253
9041,0,4456,-16340,0,19.02,-1032,-91,-236
9051,0,4536,-16272,8,19.02,-1033,-99,-223
9060,0,4648,-16428,52,19.02,-1104,-160,-230
9069,0,4500,-16388,308,18.98,-1166,-182,-205
9079,0,4348,-16304,224,18.98,-1175,-203,-188
9088,0,4476,-16412,64,18.93,-1205,-207,-179
9110,0,4416,-16316,-68,18.98,-1278,-182,-170
9119,0,4324,-16320,60,18.98,-1300,-197,-188
9130,0,4212,-16320,-196,19.02,-1339,-196,-193
9139,0,4248,-16324,-116,19.12,-1361,-221,-190
9148,0,4184,-16336,-132,18.98,-1396,-253,-228
9157,0,4292,-16428,-256,19.02,-1409,-266,-205
9167,0,4308,-16552,-152,18.93,-1433,-261,-266
9176,0,4228,-16356,-200,19.02,-1430,-260,-228
9185,0,4152,-16292,-228,19.07,-1464,-273,-261
9194,0,4232,-16488,-384,18.98,-1459,-227,-288
9206,0,4088,-16408,-424,19.07,-1434,-210,-274
9215,0,4116,-16228,-528,19.07,-1425,-190,-269
9224,0,4060,-16332,-544,18.98,-1428,-172,-315
9233,0,4004,-16348,-652,19.07,-1419,-140,-345
9243,0,4088,-16340,-492,19.02,-1411,-172,-346
9252,0,4160,-16460,-476,18.98,-1432,-187,-382
9261,0,4236,-16428,-464,19.02,-1411,-179,-367
9270,0,4464,-16332,-552,18.93,-1369,-249,-354
9279,0,4376,-16420,-556,18.98,-1364,-268,-341
9291,0,4568,-16212,-548,18.98,-1329,-298,-342
9300,0,4608,-16316,-544,19.02,-1327,-368,-301
9309,0,4624,-16196,-544,19.02,-1317,-432,-281
9318,0,4620,-16264,-376,18.98,-1340,-442,-236
9327,0,4628,-16180,-280,19.02,-1414,-449,-231
9336,0,4760,-16204,-336,18.93,-1442,-420,-183
9345,0,4588,-16232,-408,19.07,-1463,-474,-192
9355,0,4536,-16332,-500,19.07,-1482,-523,-145
9386,0,4348,-16412,-736,19.07,-1576,-272,-130
9395,0,4268,-16396,-768,18.98,-1596,-308,-146
9405,0,4184,-16428,-724,19.02,-1561,-275,-185
9414,0,4196,-16328,-764,19.02,-1548,-344,-215
9423,0,4060,-16284,-648,18.98,-1569,-370,-240
9432,0,4060,-16232,-780,18.98,-1528,-312,-273
9441,0,4068,-16308,-944,19.02,-1538,-340,-306
9450,0,4196,-16296,-1084,18.98,-1545,-342,-332
9459,0,4312,-16328,-860,18.93,-1492,-308,-359
9471,0,4236,-16400,-860,18.98,-1464,-284,-354
9480,0,4256,-16288,-1176,19.02,-1441,-254,-326
9489,0,4276,-16276,-1064,18.98,-1400,-193,-337
9498,0,4288,-16244,-1316,19.12,-1365,-91,-346
9507,0,4236,-16196,-1176,19.07,-1331,-100,-343
9517,0,4316,-16084,-1044,19.02,-1327,-116,-346
9526,0,4316,-16308,-1136,18.98,-1276,-98,-354
9535,0,4328,-16208,-1116,19.02,-1266,-109,-360
9547,0,4452,-16148,-1340,19.02,-1172,-67,-327
9556,0,4360,-16228,-1548,19.07,-1094,-12,-303
9565,0,4544,-16184,-1172,18.93,-1107,-28,-270
9574,0,4488,-16264,-928,18.98,-1063,-52,-277
9584,0,4676,-16188,-1300,18.98,-983,-112,-260
9593,0,4580,-16276,-1164,18.98,-1015,-200,-243
9602,0,4268,-16156,-804,18.93,-1021,-125,-219
9611,0,4448,-16316,-1288,18.98,-1066,-24,-221
9620,0,4408,-16072,-1288,19.02,-1055,9,-199
9632,0,4412,-16204,-1248,19.02,-1016,-74,-226
9641,0,4516,-16244,-996,18.98,-1048,-172,-218
9663,0,4488,-16356,-1040,18.98,-996,-177,-225
9672,0,4412,-16352,-1148,19.02,-1023,-225,-229
9681,0,4520,-16284,-1148,19.02,-954,-218,-221
9690,0,4416,-16272,-1152,18.98,-997,-235,-196
9700,0,4388,-16196,-1152,19.02,-963,-166,-215
9709,0,4340,-16232,-1012,18.98,-984,-176,-219
9720,0,4180,-16292,-1044,18.98,-1011,-144,-199
9730,0,4344,-16204,-980,19.02,-1041,-176,-223
9739,0,4208,-16176,-1104,19.07,-1018,-106,-206
9748,0,4312,-16308,-876,19.12,-1034,-102,-216
9757,0,4368,-16192,-1212,19.07,-993,-142,-204
9766,0,4344,-16272,-1392,19.02,-959,-111,-215
9775,0,4156,-16216,-1292,19.07,-905,-83,-232
9785,0,4324,-16208,-1124,19.07,-917,-20,-236
9794,0,4392,-16188,-1148,19.02,-886,-29,-233
9805,0,4256,-16220,-1364,19.02,-865,-117,-224
9815,0,4408,-16296,-1012,18.98,-906,-150,-254
9824,0,4436,-16288,-972,18.98,-870,-68,-211
9833,0,4540,-16288,-1152,19.07,-869,-19,-247
9842,0,4684,-16232,-1044,19.12,-879,-57,-208
9852,0,4660,-16348,-936,19.02,-830,-119,-213
9861,0,4676,-16220,-1200,19.07,-823,-107,-168
9870,0,4648,-16272,-1164,19.07,-866,-153,-151
9882,0,4660,-16252,-604,19.12,-971,-253,-135
9891,0,4620,-16424,-1244,18.98,-968,-194,-161
9900,0,4684,-16200,-1016,18.98,-981,-298,-139
9910,0,4732,-16228,-844,19.07,-1062,-357,-163
9919,0,4668,-16292,-980,18.98,-1098,-275,-104
9941,0,4352,-16420,-1364,19.07,-1079,-159,-52
9950,0,4476,-16396,-812,18.98,-1161,-167,-96
9959,0,4376,-16364,-456,19.02,-1227,-168,-82
9969,0,4432,-16264,-240,19.02,-1318,-266,-93
9981,0,4368,-16700,-548,19.02,-1404,-303,-159
9995,0,4140,-16296,-792,18.93,-1452,-275,-132
10008,0,4004,-16320,-1024,18.98,-1414,-171,-161
10022,0,4220,-16680,-752,19.02,-1514,-192,-193
10036,0,4196,-16420,-764,19.07,-1539,-269,-202
10048,0,4172,-16556,-1004,19.07,-1599,-300,-259
10060,0,4096,-16168,-1260,18.98,-1466,-282,-244
10073,0,4272,-16232,-880,19.07,-1587,-116,-255
10094,0,4308,-16464,-1272,18.98,-1519,-239,-249
10102,0,4244,-16244,-880,19.02,-1614,-210,-299
10111,0,4236,-16448,-1036,19.02,-1549,-274,-254
10120,0,4416,-16264,-1324,19.07,-1577,-303,-266
10129,0,4236,-16296,-916,18.98,-1580,-279,-271
10138,0,4316,-16332,-1228,19.02,-1599,-256,-256
10146,0,4328,-16412,-1476,19.02,-1568,-276,-238
10155,0,4528,-16516,-1660,19.07,-1541,-214,-265
10164,0,4564,-16384,-1684,19.02,-1481,-275,-234
10175,0,4280,-16364,-1892,18.98,-1463,-231,-248
10184,0,4280,-16304,-2004,19.02,-1419,-189,-225
10194,0,4240,-16224,-1648,18.98,-1375,-173,-230
10203,0,4520,-16260,-1724,19.07,-1400,-221,-238
10212,0,4372,-16148,-2016,18.98,-1376,-171,-230
10221,0,4420,-16172,-1960,18.98,-1387,-293,-240
10230,0,4480,-16168,-2184,19.07,-1402,-256,-221
10240,0,4352,-16152,-1892,19.02,-1289,-273,-185
10264,0,4220,-16040,-1800,18.98,-1335,-264,-228
10273,0,4432,-15984,-1424,19.07,-1400,-355,-212
10282,0,4456,-16060,-1596,18.98,-1403,-401,-224
10292,0,4520,-16168,-1972,19.12,-1442,-430,-231
10301,0,4332,-16216,-2116,19.12,-1361,-490,-241
10310,0,4436,-16284,-1948,18.98,-1306,-441,-209
10319,0,4632,-16408,-2348,18.98,-1240,-383,-221
10328,0,4848,-16516,-1924,18.98,-1162,-464,-157
10339,0,4884,-16260,-1620,18.98,-1131,-474,-113
10348,0,4560,-16204,-1488,19.12,-1206,-484,-88
10357,0,4608,-16048,-1732,19.02,-1228,-383,-38
10366,0,4604,-16064,-1928,19.02,-1176,-335,6
10375,0,4600,-16124,-2092,19.12,-1128,-217,-3
10385,0,4376,-16212,-2240,19.02,-1048,-89,14
10394,0,4388,-16088,-2320,19.07,-974,-32,62
10403,0,4452,-16268,-2088,19.02,-983,-62,70
10415,0,4332,-16080,-1344,18.98,-955,-168,60
10424,0,4260,-15936,-1736,19.02,-1050,-191,43
10433,0,4316,-16332,-1436,19.02,-1042,-216,4
10442,0,4132,-16300,-1704,19.07,-1125,-188,-1
10451,0,4128,-16240,-1484,18.98,-1113,-260,-15
10460,0,4328,-16300,-1800,19.07,-1188,-219,-51
10469,0,4280,-16152,-1652,19.07,-1152,-236,-94
10478,0,4256,-16204,-1784,19.07,-1162,-236,-62
10487,0,4236,-16316,-1976,18.98,-1139,-178,-80
10498,0,4016,-16404,-1988,19.02,-1030,-134,-106
10508,0,4028,-16460,-2040,19.02,-970,-59,-128
10517,0,3912,-16260,-2140,18.98,-922,-41,-159
10539,0,4108,-15952,-2004,18.93,-926,-49,-184
10549,0,3984,-16172,-1896,19.07,-954,-60,-201
10558,0,4040,-16248,-1560,19.02,-1010,-93,-208
10567,0,4024,-16424,-1592,19.02,-1035,-87,-257
10576,0,4120,-16460,-1532,18.98,-1074,-64,-271
10588,0,4192,-16404,-1784,18.98,-1108,-49,-347
10597,0,3944,-16292,-1580,19.02,-1091,-36,-341
10606,0,3888,-16364,-1620,19.12,-1108,1,-372
10615,0,3920,-16336,-1700,18.98,-1130,-16,-396
10624,0,4044,-16220,-1720,19.02,-1151,-37,-412
10634,0,4088,-16312,-1300,19.12,-1217,-70,-454
10643,0,4188,-16300,-1360,19.02,-1286,-98,-459
10652,0,4320,-16332,-1456,19.02,-1339,-165,-483
10663,0,4640,-16264,-1524,19.07,-1387,-268,-490
10673,0,4636,-16244,-1760,19.02,-1418,-284,-430
10682,0,4620,-16340,-1728,19.07,-1416,-311,-394
10691,0,4744,-16256,-1952,18.98,-1405,-232,-359
10700,0,4780,-16248,-2108,19.02,-1418,-188,-308
10709,0,4744,-16168,-2296,19.07,-1402,-173,-311
10718,0,4572,-16000,-2436,19.07,-1378,-190,-230
10727,0,4320,-16136,-2216,19.02,-1341,-137,-228
10746,0,4232,-16016,-2336,19.02,-1325,-64,-189
10755,0,4152,-15948,-2424,18.98,-1325,-70,-223
10764,0,4252,-16172,-2328,19.02,-1272,-102,-243
10773,0,4064,-16132,-2108,18.98,-1278,-163,-247
10782,0,4016,-16144,-2456,18.98,-1263,-41,-282
10791,0,4008,-16388,-2696,19.02,-1227,10,-334
10801,0,4044,-16376,-2832,18.98,-1161,-54,-331
10823,0,4160,-16356,-2448,18.98,-1052,50,-430
10832,0,4272,-16224,-2464,19.12,-1004,-5,-450
10844,0,4248,-16184,-2528,19.02,-956,-43,-423
10853,0,4364,-16196,-2392,19.02,-953,-37,-476
10862,0,4512,-16088,-2432,19.07,-943,-38,-464
10871,0,4664,-16012,-2372,18.98,-905,-57,-431
10881,0,4784,-16040,-2232,19.02,-920,-61,-386
10890,0,4864,-16012,-2268,19.02,-910,-70,-338
10899,0,4788,-15988,-2264,18.93,-900,-114,-317
10908,0,4820,-16008,-2320,19.02,-880,-97,-267
10920,0,4744,-16112,-2296,19.12,-889,-56,-204
10929,0,4716,-16140,-2492,19.07,-890,17,-176
10938,0,4664,-16188,-2408,19.12,-871,3,-146
10947,0,4576,-16144,-2460,19.12,-819,-57,-183
10957,0,4480,-16176,-2288,18.98,-824,-34,-137
10966,0,4372,-16244,-2464,18.93,-781,-25,-125
10975,0,4372,-16324,-2468,19.02,-759,-39,-155
10984,0,4504,-16248,-2084,19.07,-733,-61,-146
10996,0,4524,-16068,-2180,19.07,-725,-43,-132
11005,0,4360,-16200,-2276,19.02,-739,-62,-150
11014,0,4376,-16068,-2288,18.98,-705,-49,-135
11023,0,4296,-16096,-2312,19.02,-672,-6,-124
11032,0,4456,-16132,-2136,19.02,-698,44,-124
11042,0,4344,-16260,-1928,19.02,-752,57,-152
11051,0,4360,-16276,-2140,19.12,-734,44,-130
11060,0,4236,-16248,-2064,19.12,-686,75,-133
11072,0,4308,-16368,-2136,18.93,-667,145,-126
11094,0,4220,-16376,-2100,18.98,-720,160,-222
11104,0,4232,-16300,-1964,19.07,-724,150,-240
11113,0,4232,-16260,-1948,19.07,-747,75,-252
11122,0,4388,-16228,-1996,19.07,-760,80,-240
11132,0,4300,-16248,-2032,19.07,-748,48,-258
11141,0,4468,-16232,-2056,19.07,-740,55,-245
11150,0,4528,-16200,-2132,19.02,-792,55,-263
11160,0,4472,-16220,-1900,18.98,-779,43,-226
11172,0,4540,-16204,-2104,19.02,-787,23,-208
11181,0,4412,-16172,-1940,19.07,-827,92,-181
11190,0,4384,-16148,-1908,19.07,-826,100,-222
11200,0,4420,-16168,-2208,18.98,-873,83,-181
11209,0,4272,-16152,-2196,18.98,-861,28,-181
11219,0,4308,-16216,-2136,19.07,-813,27,-198
11228,0,4360,-16264,-2076,19.02,-822,42,-215
11237,0,4188,-16220,-2052,19.02,-851,66,-179
11249,0,4288,-16284,-2048,19.02,-868,39,-209
11259,0,4144,-16240,-2128,18.93,-847,23,-223
11268,0,4260,-16216,-2060,19.02,-849,70,-260
11277,0,4212,-16320,-2128,18.98,-862,19,-247
11287,0,4220,-16192,-1956,19.07,-876,20,-282
11296,0,4180,-16260,-1992,19.02,-865,8,-263
11305,0,4184,-16212,-1908,18.88,-899,-10,-276
11315,0,4320,-16292,-2144,19.02,-897,14,-289
11327,0,4436,-16144,-2388,19.02,-891,-12,-328
11340,0,4380,-16168,-2264,19.02,-875,-38,-295
11353,0,4316,-16192,-2176,19.02,-832,34,-295
11367,0,4468,-16256,-2164,19.07,-837,62,-291
11381,0,4416,-16044,-2288,19.02,-820,40,-315
11393,0,4288,-16088,-2480,19.07,-777,41,-291
11417,0,4376,-16116,-2808,19.07,-593,127,-319
11430,0,4312,-16052,-3140,19.12,-478,126,-279
11452,0,4320,-16016,-2396,19.02,-368,279,-238
11461,0,4432,-16008,-2504,19.07,-375,287,-246
11470,0,4652,-15952,-2440,18.98,-314,220,-164
11479,0,4476,-16072,-2620,19.02,-278,205,-229
11487,0,4632,-16004,-2460,19.12,-225,225,-172
11496,0,4568,-16016,-2564,18.98,-225,279,-167
11505,0,4548,-16176,-2568,19.07,-148,294,-175
11514,0,4452,-16200,-2684,19.12,-86,322,-136
11522,0,4440,-16184,-2420,19.02,-10,364,-145
11533,0,4468,-16092,-2240,19.07,8,403,-139
11543,0,4368,-16244,-2168,19.12,-5,392,-120
11552,0,4372,-16240,-2128,19.02,-27,419,-136
11561,0,4304,-16140,-1964,19.12,16,397,-113
11570,0,4380,-16020,-2060,19.07,7,409,-160
11579,0,4388,-16304,-2328,19.17,54,398,-173
11588,0,4300,-16116,-2156,19.07,99,380,-171
11597,0,4332,-16212,-2064,19.07,123,433,-180
11608,0,4280,-16244,-2040,19.07,162,461,-181
11617,0,4372,-16248,-2180,18.98,207,461,-206
11628,0,4364,-16088,-2108,19.07,198,468,-191
11637,0,4308,-16128,-2260,18.98,254,472,-193
11646,0,4508,-16004,-2104,19.02,307,480,-214
11655,0,4476,-16092,-2232,19.02,350,532,-158
11664,0,4584,-16156,-2208,19.12,374,531,-195
11673,0,4496,-16000,-1896,19.07,373,501,-144
11684,0,4500,-16176,-1752,19.07,475,513,-150
11707,0,4768,-16192,-1396,19.07,456,489,-50
11716,0,4756,-16276,-1444,19.07,447,475,-19
11725,0,4700,-16148,-1272,19.02,425,454,2
11734,0,4696,-16276,-1116,19.07,387,454,47
11743,0,4688,-16328,-1092,19.07,345,420,31
11752,0,4428,-16220,-936,19.07,310,412,49
11762,0,4604,-16372,-944,19.12,258,451,72
11773,0,4512,-16352,-804,19.07,223,364,31
11782,0,4444,-16376,-808,19.12,160,344,31
11791,0,4404,-16472,-508,19.12,92,312,39
11800,0,4184,-16612,-384,19.02,-2,244,20
11809,0,4204,-16568,-364,19.12,-123,225,-18
11818,0,4192,-16440,-392,19.12,-223,222,-2
11827,0,4316,-16372,-444,19.02,-268,194,-16
11837,0,4084,-16532,-512,19.07,-326,166,-72
11846,0,4148,-16568,-520,19.02,-410,219,-72
11858,0,4072,-16616,-500,19.17,-488,193,-133
11867,0,4064,-16580,-544,19.07,-567,187,-181
11876,0,4072,-16580,-632,19.12,-634,157,-189
11885,0,4116,-16460,-764,19.07,-680,124,-226
11894,0,4256,-16288,-968,19.12,-700,61,-237
11903,0,4380,-16228,-988,19.07,-717,4,-244
11912,0,4340,-16400,-796,19.12,-722,86,-232
11922,0,4352,-16388,-768,19.12,-776,22,-240
11933,0,4452,-16464,-876,19.07,-795,73,-212
11942,0,4488,-16336,-944,18.98,-829,19,-203
11951,0,4556,-16284,-1216,19.12,-855,-29,-174
11960,0,4452,-16304,-1076,19.02,-851,-12,-181
11982,0,4448,-16400,-1172,19.07,-864,71,-159
11992,0,4292,-16316,-1720,19.12,-799,70,-178
12001,0,4372,-16220,-1564,19.12,-754,-15,-160
12010,0,4292,-16176,-1752,19.07,-686,9,-186
12021,0,4264,-16108,-1648,19.12,-660,40,-184
12030,0,4256,-16152,-1744,18.98,-596,94,-146
12040,0,4384,-16292,-1636,19.12,-608,74,-198
12050,0,4312,-16236,-1608,19.02,-609,74,-160
12059,0,4320,-16168,-1724,19.02,-554,35,-172
12068,0,4304,-16172,-1788,19.07,-509,66,-164
12077,0,4280,-16200,-1988,19.12,-430,89,-182
12086,0,4336,-16160,-1888,18.98,-363,110,-163
12105,0,4336,-16112,-1784,19.07,-234,164,-146
12114,0,4376,-16132,-1860,18.98,-202,173,-135
12123,0,4336,-16104,-1764,19.02,-147,201,-137
12132,0,4256,-16132,-1616,18.93,-132,221,-122
12142,0,4300,-16092,-1568,19.07,-72,249,-115
12151,0,4224,-16160,-1420,19.02,-57,276,-98
12160,0,4436,-16264,-1256,19.07,-18,259,-111
12169,0,4404,-16284,-1076,19.07,-15,271,-79
12178,0,4420,-16340,-956,19.07,-15,261,-84
12190,0,4352,-16236,-1328,19.12,0,254,-100
12199,0,4424,-16352,-1252,19.12,70,266,-37
12208,0,4368,-16312,-948,19.07,35,314,-35
12217,0,4284,-16336,-740,19.02,34,321,-79
12227,0,4276,-16296,-444,19.07,14,315,-88
12236,0,4268,-16480,-524,19.12,-5,289,-41
12258,0,4164,-16392,-380,19.12,-109,234,-62
12267,0,4132,-16508,-232,19.07,-164,270,-81
12279,0,4148,-16528,-116,19.12,-234,284,-131
12288,0,4136,-16540,-196,19.02,-323,296,-136
12297,0,4072,-16424,-140,18.98,-363,286,-166
12307,0,4056,-16520,-156,18.98,-437,258,-202
12316,0,4136,-16504,-216,19.07,-466,217,-231
12325,0,4088,-16536,28,19.07,-529,173,-248
12334,0,4112,-16512,-96,19.07,-612,175,-286
12344,0,4168,-16480,-16,19.07,-652,120,-314
12356,0,4248,-16552,-52,19.07,-735,101,-308
12365,0,4236,-16552,-176,19.07,-809,65,-320
12374,0,4276,-16484,-408,19.07,-840,56,-369
12384,0,4384,-16536,-448,19.12,-907,34,-337
12393,0,4432,-16424,-516,19.02,-918,-36,-293
12402,0,4452,-16336,-512,19.07,-957,-93,-323
12411,0,4576,-16432,-692,19.17,-974,-115,-282
12421,0,4576,-16328,-756,19.17,-949,-114,-281
12432,0,4368,-16276,-948,19.17,-987,-95,-241
12442,0,4464,-16256,-896,19.02,-995,-96,-219
12453,0,4488,-16192,-1084,19.12,-1012,-117,-234
12462,0,4296,-16260,-1100,19.12,-988,-116,-211
12471,0,4324,-16240,-1152,19.02,-967,-83,-183
12480,0,4152,-16280,-1164,19.17,-959,-37,-195
12490,0,4172,-16276,-1280,18.98,-963,-52,-177
12499,0,4108,-16204,-1224,19.12,-938,-45,-236
12508,0,4208,-16192,-1292,19.02,-891,-59,-267
12520,0,4252,-16380,-1212,19.07,-849,-68,-260
12556,0,4508,-16216,-1372,19.02,-676,32,-246
12566,0,4416,-16320,-1352,19.02,-643,39,-193
12575,0,4444,-16188,-1264,19.17,-644,62,-207
12584,0,4432,-16184,-1084,19.07,-571,88,-179
12593,0,4428,-16184,-1128,19.17,-562,101,-169
12603,0,4328,-16252,-1324,19.07,-511,143,-172
12612,0,4320,-16252,-1168,19.17,-498,154,-181
12624,0,4288,-16332,-1216,19.07,-447,156,-163
12633,0,4280,-16120,-1164,19.07,-337,188,-196
12642,0,4168,-16292,-1296,18.98,-311,180,-162
12652,0,4420,-16224,-1108,19.12,-288,216,-132
12661,0,4248,-16284,-1164,19.07,-241,242,-169
12670,0,4240,-16268,-1236,19.07,-214,217,-168
12680,0,4308,-16312,-1200,19.12,-191,227,-138
12689,0,4324,-16256,-1268,19.02,-133,249,-153
12701,0,4332,-16196,-1124,19.07,-74,283,-166
12715,0,4444,-16256,-1196,19.17,-13,322,-125
12761,0,4568,-16112,-800,19.17,204,280,-61
12774,0,4628,-16172,-748,19.07,187,307,-3
12785,0,4492,-16180,-864,19.07,227,324,1
12799,0,4504,-16336,-732,19.12,237,361,60
12810,0,4248,-16220,-528,19.12,259,411,73
12823,0,4180,-16308,-400,19.07,240,433,41
12834,0,4404,-16176,-408,19.17,255,409,18
12857,0,4168,-16420,-156,19.02,211,334,22
12866,0,4128,-16272,-16,19.02,197,308,-7
12875,0,4192,-16432,80,19.12,162,288,17
12884,0,4292,-16412,8,19.07,178,218,-21
12906,0,4244,-16540,260,19.07,55,222,-3
12915,0,4180,-16484,396,19.07,-31,224,-25
12924,0,4088,-16584,744,19.12,-67,240,-24
12933,0,4116,-16612,592,19.12,-154,226,-57
12944,0,3932,-16636,648,19.07,-234,190,-50
12954,0,4016,-16548,724,18.98,-325,181,-100
12963,0,3880,-16612,700,19.07,-390,153,-86
12972,0,3952,-16648,764,19.02,-475,116,-109
12981,0,4028,-16604,896,18.98,-562,66,-148
12990,0,3964,-16568,784,19.12,-639,15,-174
13000,0,3868,-16604,868,19.07,-749,8,-178
13009,0,3836,-16648,828,19.02,-806,26,-236
13020,0,4000,-16664,844,19.02,-926,-44,-245
13030,0,4056,-16636,820,19.07,-1006,-125,-267
13039,0,4100,-16676,612,19.07,-1096,-127,-292
13048,0,4136,-16512,440,19.07,-1184,-220,-334
13057,0,4256,-16404,296,19.02,-1211,-197,-307
13067,0,4264,-16456,148,19.12,-1241,-224,-297
13076,0,4252,-16332,-72,19.17,-1261,-222,-300
13085,0,4228,-16292,-60,19.07,-1303,-190,-262
13097,0,4272,-16332,-436,19.12,-1274,-195,-271
13106,0,4224,-16212,-696,19.12,-1248,-223,-244
13115,0,4324,-16248,-816,19.07,-1221,-213,-230
13124,0,4320,-16256,-708,19.12,-1175,-185,-233
13134,0,4228,-16216,-948,19.02,-1166,-159,-213
13143,0,4164,-16260,-760,19.17,-1093,-166,-208
13152,0,4144,-16268,-892,19.07,-1046,-132,-181
13161,0,4144,-16292,-988,19.02,-1001,-111,-208
13183,0,4080,-16120,-1192,19.07,-832,-26,-225
13195,0,4188,-16164,-1272,19.12,-685,6,-224
13204,0,4176,-16120,-1108,19.02,-627,39,-201
13213,0,4148,-16144,-1064,19.12,-558,61,-213
13223,0,4292,-16164,-1080,19.02,-483,80,-205
13232,0,4352,-16152,-1060,18.98,-440,96,-177
13241,0,4176,-16244,-868,19.17,-357,136,-172
13250,0,4232,-16248,-624,19.07,-336,170,-174
13260,0,4300,-16256,-552,19.07,-303,161,-153
13271,0,4180,-16344,-464,19.21,-326,155,-171
13281,0,4280,-16380,-276,19.07,-274,185,-162
13290,0,4232,-16284,-216,19.07,-302,152,-135
13299,0,4228,-16460,92,19.12,-302,129,-147
13308,0,4280,-16440,-92,19.12,-321,115,-178
13318,0,4252,-16488,-48,19.12,-322,114,-162
13327,0,4280,-16480,108,19.12,-333,115,-139
13336,0,4280,-16428,272,18.98,-378,72,-142
13348,0,4332,-16460,320,19.12,-408,59,-156
13357,0,4212,-16536,540,19.02,-473,43,-136
13367,0,4220,-16528,472,19.17,-527,10,-130
13376,0,4304,-16464,696,19.07,-582,-19,-176
13385,0,4332,-16528,672,19.07,-650,-38,-161
13394,0,4216,-16480,496,19.12,-712,-80,-160
13404,0,4476,-16708,252,19.12,-791,-118,-135
13413,0,3856,-16460,1088,19.12,-819,-112,-149
13425,0,4244,-16512,292,19.07,-890,-69,-172
13434,0,3984,-16572,-956,19.07,-902,-4,-182
13443,0,4688,-15816,-1084,19.17,-755,-4,-187
13465,0,4336,-16664,100,19.07,-584,12,-125
13475,0,4172,-16644,660,19.07,-835,10,-87
13484,0,4540,-16280,860,19.12,-1006,-81,-105
13494,0,5676,-16692,532,19.07,-766,29,18
13503,0,3304,-16916,-196,19.17,-1270,154,-101
13512,0,3868,-15784,-12,19.02,-1198,-27,-140
13532,0,4724,-15880,-588,18.98,-975,-151,-106
13541,0,4760,-15848,-528,19.21,-730,-345,-7
13551,0,4928,-16168,-1240,19.12,-781,-212,-15
13561,0,4104,-16296,-800,19.12,-753,-90,-9
13570,0,4044,-16456,-1040,19.17,-576,73,43
13579,0,3684,-16692,-688,19.07,-585,166,-2
13589,0,4180,-16812,-308,19.02,-510,386,-44
13598,0,3220,-16800,484,19.07,-596,404,-119
13610,0,3480,-16132,-148,19.02,-504,339,-166
13619,0,3376,-15956,-588,19.12,-539,290,-239
13628,0,3604,-15676,-324,19.17,-531,174,-274
13638,0,3536,-15788,-1160,19.17,-398,74,-285
13647,0,3636,-16092,-1056,19.12,-320,99,-338
13657,0,3764,-16272,-836,19.07,-113,85,-355
13666,0,4404,-16320,-1336,19.07,23,121,-358
13676,0,4268,-16528,-936,19.12,78,-19,-357
13688,0,4116,-16696,-676,19.07,306,124,-368
13697,0,4492,-16412,-176,19.17,279,205,-269
13707,0,4460,-16676,544,19.07,178,247,-274
13716,0,4444,-16492,772,19.07,53,317,-264
13725,0,4420,-16196,660,19.17,-76,323,-219
13748,0,4404,-15984,904,19.07,-198,159,-177
13758,0,4480,-16200,440,19.17,-246,73,-101
13767,0,4248,-16504,520,19.07,-284,86,-122
13779,0,4280,-16644,388,19.07,-345,50,-117
13788,0,3824,-16796,964,19.17,-315,18,-153
13798,0,3900,-17184,1968,19.02,-529,7,-242
13807,0,4000,-16772,596,19.02,-710,220,-170
13816,0,4228,-17036,-268,19.07,-866,-307,-261
13826,0,4200,-16660,1264,19.07,-853,-296,-297
13835,0,4456,-16396,1356,19.17,-992,-245,-272
13844,0,4336,-16352,184,19.17,-1035,-328,-222
13854,0,4264,-16328,-80,19.07,-1033,-344,-261
13865,0,4364,-15752,-84,19.12,-914,-283,-148
13875,0,4172,-15744,56,19.07,-933,-323,-105
13884,0,4160,-16028,-80,19.17,-935,-296,-91
13894,0,4256,-16508,460,19.02,-960,-156,-92
13903,0,4104,-16728,476,19.12,-991,37,-14
13912,0,4088,-16780,300,19.02,-1052,103,-32
13922,0,4068,-16700,452,19.07,-1039,177,-78
13931,0,4048,-16792,532,19.07,-1078,120,-101
13943,0,3856,-16648,700,19.07,-1107,141,-171
13952,0,4064,-16512,420,19.07,-1155,88,-196
13962,0,3840,-16376,448,19.02,-1194,42,-223
13971,0,4152,-16420,680,19.17,-1218,112,-228
13980,0,4396,-16476,624,19.12,-1320,52,-269
13990,0,4256,-16372,568,19.07,-1341,35,-279
13999,0,4404,-16236,1016,19.12,-1481,-55,-266
14009,0,4296,-16452,860,19.07,-1594,-137,-300
14033,0,4004,-16688,476,19.12,-1915,-86,-342
14043,0,3736,-16472,-64,19.07,-1937,-65,-355
14052,0,3708,-16376,-176,19.12,-1903,5,-408
14061,0,4048,-16592,-768,19.02,-1874,5,-407
14071,0,3776,-15108,-2204,19.07,-1906,718,-178
14080,0,4556,-14828,-1036,19.02,-2085,1288,-100
14091,0,3972,-17460,-1684,19.17,-1639,434,-306
14100,0,4296,-16344,-1552,19.02,-1219,-254,-446
14112,0,4516,-16000,-504,19.07,-1024,-955,-322
14126,0,4288,-16496,-2144,19.07,-697,394,-285
14140,0,5344,-16328,-724,19.07,-894,-455,-184
14154,0,4092,-16276,32,19.17,-804,500,-24
14167,0,3376,-15972,-1548,19.02,-624,1047,33
14180,0,6552,-9400,-1532,19.07,-2638,303,874
14192,0,3324,-19164,-2520,19.07,835,-1114,132
14205,0,6428,-18392,-2892,19.07,-171,817,365
14217,0,32767,5152,-32768,19.17,-16,5457,3980
14239,0,3240,-17200,-5128,19.26,3178,-2758,241
14248,0,4296,-17372,6224,19.17,1104,-154,-472
14257,0,4372,-17648,1200,19.12,153,-910,-761
14266,0,7136,-15264,-804,18.98,985,-1595,-660
14275,0,4320,-16080,864,19.02,288,-698,-543
14284,0,4216,-15844,228,19.12,521,-1461,-616
14293,0,2812,-15020,-396,19.17,486,-581,-530
14302,0,9392,-19084,-9204,19.12,1248,-225,-241
14313,0,7412,-16380,2736,19.07,123,55,-265
14322,0,5348,-15772,2080,19.12,119,-627,-146
14332,0,3552,-16756,-212,19.02,-100,-560,-266
14341,0,3660,-17656,1516,19.07,-194,-798,-316
14350,0,5352,-17100,1932,19.12,-306,-228,-256
14372,0,4320,-16656,1200,19.21,-621,-12,-225
14381,0,4004,-16512,1324,19.07,-695,-40,-199
14391,0,3664,-16296,1432,19.12,-800,-28,-217
14402,0,3608,-16380,1156,19.12,-864,-19,-259
14411,0,3792,-16364,1128,19.12,-964,-18,-299
14421,0,3804,-16388,764,19.07,-1004,-121,-346
14430,0,4096,-16456,808,19.07,-969,-218,-325
14439,0,4312,-16560,704,19.12,-940,-241,-294
14448,0,4352,-16428,608,19.17,-919,-270,-277
14458,0,4288,-16520,436,19.07,-934,-257,-256
14467,0,4248,-16308,388,19.12,-965,-186,-226
14478,0,4216,-16440,628,19.02,-1053,-153,-206
14488,0,4320,-16280,720,19.17,-1091,-18,-171
14497,0,4204,-16208,452,19.12,-1165,40,-204
14506,0,4204,-16228,228,19.12,-1219,32,-216
14515,0,4004,-16296,128,19.17,-1219,67,-191
14525,0,4092,-16364,-176,19.17,-1172,67,-216
14534,0,4360,-16308,-32,19.02,-1190,-40,-230
14543,0,4208,-16452,-124,19.12,-1158,-101,-257
14552,0,4280,-16440,48,19.02,-1135,-174,-246
14564,0,4220,-16476,8,19.07,-1168,-191,-274
14573,0,4216,-16416,-48,19.17,-1183,-174,-253
14582,0,4256,-16272,248,19.21,-1235,-217,-259
14591,0,4292,-16232,-104,19.07,-1221,-160,-251
14601,0,4108,-16244,-208,19.07,-1246,-184,-255
14610,0,4136,-16172,-88,19.07,-1218,-84,-273
14619,0,4300,-16296,-148,19.12,-1245,-53,-284
14628,0,4492,-16212,-92,19.17,-1229,-131,-286
14653,0,4124,-16312,-400,19.26,-1033,-81,-225
14662,0,4024,-16412,-100,19.12,-1074,26,-269
14672,0,3900,-16296,-236,19.07,-1041,125,-261
14681,0,3912,-16376,-260,19.17,-1003,182,-259
14690,0,3832,-16280,-248,19.12,-921,178,-254
14700,0,3828,-16216,-348,19.02,-899,136,-271
14709,0,3948,-16204,-16,19.12,-877,131,-286
14719,0,3984,-16308,-92,19.12,-835,133,-279
14731,0,4008,-16288,76,19.12,-839,117,-287
14740,0,4100,-16356,84,19.12,-756,103,-269
14750,0,4160,-16328,-44,19.07,-751,79,-265
14759,0,4124,-16324,44,19.12,-686,65,-238
14768,0,4120,-16356,320,19.07,-674,46,-207
14778,0,4272,-16428,348,19.07,-694,14,-213
14787,0,4168,-16500,472,19.12,-750,-19,-210
14797,0,4080,-16348,384,19.12,-805,33,-179
14809,0,4040,-16468,416,19.12,-840,98,-209
14818,0,4088,-16480,252,19.17,-882,114,-157
14827,0,4168,-16456,172,19.12,-938,58,-167
14837,0,4132,-16452,164,19.17,-967,42,-188
14846,0,4124,-16432,160,19.17,-1013,11,-201
14856,0,4076,-16348,-116,19.12,-996,1,-220
14865,0,4168,-16348,-340,19.21,-974,-66,-194
14875,0,4180,-16308,-156,19.17,-959,-112,-219
14884,0,4136,-16392,-248,19.07,-938,-87,-225
14904,0,3924,-16240,-436,19.07,-934,24,-205
14913,0,3864,-16384,-336,19.12,-887,41,-230
14936,0,3916,-16376,-192,19.12,-796,51,-265
14945,0,4016,-16416,-248,19.12,-782,26,-284
14955,0,4116,-16304,-364,19.21,-778,17,-282
14964,0,4248,-16264,-60,19.12,-746,-32,-292
14973,0,4408,-16184,-104,19.17,-688,-48,-250
14983,0,4480,-16180,-140,19.21,-695,-87,-218
14994,0,4612,-16188,36,19.12,-655,-107,-154
15004,0,4380,-16480,48,19.17,-641,-33,-153
15013,0,4428,-16292,-16,19.12,-668,55,-117
15023,0,4328,-16384,-12,19.02,-605,79,-66
15032,0,4228,-16256,76,19.07,-629,74,-77
15041,0,4164,-16396,136,19.07,-649,51,-86
15051,0,4296,-16400,68,19.07,-634,0,-44
15061,0,4256,-16300,44,19.21,-649,-56,-42
15073,0,4204,-16220,160,19.17,-672,-47,-65
15082,0,4388,-16276,116,19.12,-662,8,-42
15092,0,4320,-16228,48,18.98,-677,11,-46
15101,0,4300,-16308,184,19.07,-652,11,-48
15111,0,4276,-16316,84,19.12,-674,-12,-28
15120,0,4244,-16428,296,19.17,-716,-4,24
15129,0,4172,-16304,296,19.07,-732,44,-6
15139,0,4232,-16452,368,19.07,-821,96,20
15151,0,4108,-16452,156,19.07,-786,115,-10
15160,0,4020,-16452,48,19.07,-798,106,-1
15169,0,3948,-16384,212,19.02,-770,115,-22
15179,0,3812,-16420,132,19.12,-783,4,28
15188,0,3712,-16408,8,19.12,-750,206,-65
15197,0,3636,-16380,56,19.07,-780,239,-97
15219,0,3700,-16504,120,19.21,-787,199,-229
15228,0,3824,-16416,260,19.02,-769,112,-252
15238,0,3848,-16484,464,19.02,-759,111,-254
15250,0,4600,-15960,84,19.12,-756,-12,-195
15259,0,4164,-16388,-392,19.07,-677,-54,-178
15268,0,4008,-16428,-420,19.02,-613,245,-180
15278,0,3992,-16336,-64,19.12,-664,413,-202
15287,0,4604,-16432,128,19.07,-752,336,-169
15297,0,4796,-16288,24,19.12,-546,237,-69
15306,0,4636,-15888,112,19.12,-550,84,9
15315,0,3492,-16188,-108,19.02,-561,260,-47
15327,0,3056,-16652,-260,19.07,-577,508,-75
15337,0,3208,-16744,196,19.12,-568,691,-128
15346,0,3584,-16720,280,19.02,-539,536,-176
15356,0,3960,-16588,648,19.12,-574,409,-229
15365,0,3812,-16436,452,19.17,-647,196,-277
15375,0,3808,-16308,180,19.26,-704,-78,-231
15384,0,3968,-16172,252,19.12,-652,-86,-244
15394,0,4204,-16224,204,19.12,-722,-115,-215
15405,0,4408,-16412,236,19.07,-714,-139,-240
15415,0,4376,-16552,-96,19.07,-727,-148,-177
15424,0,4348,-16588,264,19.12,-702,-191,-165
15434,0,4352,-16392,628,19.07,-811,-255,-131
15443,0,4212,-16376,800,19.12,-857,-274,-70
15452,0,4144,-16280,252,19.07,-906,-268,-106
15462,0,3860,-16320,492,19.07,-967,-281,-114
15471,0,3864,-16416,200,19.12,-971,-241,-105
15481,0,3936,-16292,212,19.07,-1025,-285,-121
15830,0,5128,-17112,28,19.17,-1487,-1465,-1882
16013,0,5072,-16104,-1272,19.17,-2253,400,-1383
16026,0,4408,-16228,-1376,19.07,-2251,420,-1407
16038,0,4672,-16708,-1532,19.17,-2216,226,-1577
16052,0,4352,-17216,-1152,19.12,-2226,58,-1800
16066,0,4456,-17288,-640,19.12,-2422,-333,-2125
16079,0,4740,-17812,-576,19.07,-2486,-299,-2263
16093,0,4636,-16952,-652,19.17,-2479,-362,-2454
16116,0,4940,-17352,-376,19.17,-2666,-209,-3018
16125,0,6040,-16592,-976,19.12,-2820,-116,-3310
16134,0,5484,-17600,-1280,19.12,-3009,-31,-3579
16143,0,4692,-17304,1072,19.12,-3003,-275,-3998
16152,0,4996,-17304,-1604,19.07,-3143,106,-4346
16161,0,5624,-17772,-692,19.26,-3267,439,-4740
16170,0,5724,-17388,-1440,19.02,-3433,554,-5083
16179,0,6592,-17212,-1308,19.07,-3610,566,-5453
16190,0,6932,-16452,-864,19.07,-3862,915,-5905
16200,0,8132,-16220,-728,19.17,-3883,1186,-6119
16209,0,8144,-16516,-1032,19.12,-3901,1451,-6203
16218,0,8916,-15660,-1064,19.07,-3801,1499,-6347
16227,0,7620,-15616,-1672,19.12,-3993,1119,-6641
16237,0,8396,-15688,-1916,19.21,-3951,998,-6745
16246,0,8276,-15744,-2408,19.07,-3993,1026,-6839
16255,0,8324,-16336,-2496,19.17,-4194,677,-6819
16267,0,7668,-15956,-1592,19.07,-4282,965,-6552
16276,0,6796,-14832,-1912,19.17,-3833,1188,-6085
16286,0,7028,-14308,-528,19.12,-4319,1404,-5370
16309,0,6684,-15408,-2284,19.12,-4197,1053,-3713
16318,0,7460,-15228,-2544,19.17,-3985,1113,-3022
16327,0,7956,-14960,-2880,19.17,-3714,975,-2222
16337,0,7856,-15244,-3364,19.12,-3745,704,-1535
16346,0,8552,-14736,-3192,19.17,-3927,427,-1055
16355,0,7524,-14556,-3532,19.12,-3916,172,-544
16367,0,4708,-15816,-8648,19.07,-3374,474,-309
16376,0,8344,-14464,-7888,19.12,-3422,21,-25
16385,0,8464,-15364,-6740,19.17,-3066,683,53
16394,0,7672,-14952,-4572,19.17,-2948,234,-235
16404,0,8856,-16048,-6272,19.07,-2762,-41,-479
16413,0,8372,-15320,-6356,19.12,-2469,-51,-796
16422,0,8420,-14976,-5964,19.07,-2179,-147,-963
16431,0,8280,-15100,-5616,19.17,-1912,-382,-1179
16443,0,7960,-14468,-6100,19.17,-1421,-749,-1524
16452,0,8364,-15112,-5884,19.17,-1182,-1152,-1785
16461,0,8420,-15424,-6456,19.12,-918,-1702,-1995
16471,0,9760,-16076,-7176,19.17,-408,-2327,-2271
16480,0,8824,-15524,-6316,19.07,-94,-2757,-2117
16489,0,9972,-15496,-4752,19.21,-31,-3676,-2204
16498,0,9860,-15472,-5304,19.12,83,-4381,-2058
16507,0,8812,-15408,-4124,19.17,165,-5325,-1971
16519,0,7772,-14584,-4592,19.12,542,-6017,-1696
16528,0,9268,-15872,-2332,19.26,58,-6671,-1446
16538,0,8956,-16308,-3272,19.17,204,-6941,-1153
16552,0,7520,-15944,-3916,19.21,166,-7251,-1037
16561,0,7672,-15428,-3936,19.12,285,-7421,-819
16570,0,7444,-15092,-3868,19.02,257,-7118,-715
16592,0,6876,-14772,-3400,19.07,415,-6903,-838
16601,0,7140,-14844,-3008,19.12,478,-6761,-912
16613,0,6956,-14736,-3472,19.17,717,-7101,-1081
16623,0,7204,-14228,-2916,19.12,889,-7111,-1138
16632,0,7676,-13680,-3508,19.12,1167,-6853,-1143
16642,0,7620,-13948,-3612,19.12,1390,-6674,-1042
16652,0,8556,-13792,-3604,19.17,1405,-6384,-848
16661,0,7928,-13732,-3080,19.07,1567,-6028,-755
16670,0,7596,-13704,-3520,19.07,1384,-5270,-595
16679,0,6596,-13572,-3644,19.12,1493,-4923,-530
16689,0,6768,-13856,-2916,19.07,1543,-4614,-312
16700,0,6820,-13588,-2376,19.12,1545,-4164,-305
16710,0,6928,-13940,-1852,19.07,1501,-3724,-376
16719,0,6728,-14424,-1248,19.17,1519,-3517,-495
16728,0,6528,-15388,-732,19.17,1369,-3311,-755
16737,0,6432,-14640,-2188,19.17,1336,-2408,-1008
16748,0,6552,-15052,-1960,19.17,913,-2196,-1234
16757,0,6696,-15484,-1048,19.07,678,-1355,-1447
16766,0,7100,-15052,-1324,19.07,380,-662,-1658
16785,0,7956,-15160,-1960,19.21,-379,-208,-1677
16795,0,7168,-15548,-776,19.21,-648,136,-1625
16804,0,8376,-15312,-1528,19.21,-904,569,-1481
16813,0,8392,-15560,-1336,19.12,-1304,833,-1458
16822,0,8352,-14940,-1580,19.12,-1886,1217,-1387
16832,0,8008,-15616,-2052,19.21,-2139,2018,-1241
16841,0,8232,-15540,-1636,19.21,-2303,2177,-1125
16850,0,7932,-15208,-2392,19.17,-2629,2599,-942
16875,0,8696,-14932,-2704,19.17,-2920,3260,-639
16884,0,8256,-15652,-4916,19.07,-2537,3495,-542
16894,0,8780,-14260,-3400,19.12,-3049,3356,-310
16903,0,9076,-14672,-3316,19.07,-2925,3344,-74
16912,0,9856,-13812,-3420,19.17,-2703,3128,19
16922,0,9048,-13648,-4384,19.07,-2543,3122,89
16931,0,8704,-13648,-3912,19.12,-2424,3184,57
16940,0,8828,-13544,-4388,19.12,-2071,3411,-168
16953,0,8716,-13144,-3188,19.12,-1696,3452,-484
16962,0,9320,-12976,-3648,19.12,-1378,3682,-924
16972,0,9636,-12772,-3876,19.12,-849,3751,-1297
16981,0,9648,-13256,-3560,19.12,-497,3737,-1681
16990,0,9800,-13124,-3548,19.12,-116,3681,-2043
16999,0,9980,-12516,-3244,19.17,238,3506,-2368
17009,0,9968,-13128,-3048,19.07,495,3366,-2685
17018,0,9356,-12800,-2752,19.12,818,3161,-3001
17028,0,9532,-13340,-2564,19.12,992,2886,-3330
17040,0,10184,-13940,-2444,19.17,1220,2620,-3726
17049,0,10044,-14092,-1940,19.21,1414,2548,-3936
17058,0,10280,-13640,-2588,19.21,1618,2461,-4256
17068,0,10008,-13244,-1960,19.17,1763,2060,-4483
17077,0,10052,-13104,-2436,19.07,1756,1971,-4673
17086,0,10232,-13172,-2684,19.02,1857,2183,-4869
17096,0,9948,-13360,-2728,19.12,1909,2520,-5066
17105,0,9660,-13332,-1836,19.07,1698,2619,-5240
17117,0,9880,-13616,-1448,19.12,1308,2941,-5440
17126,0,11004,-13408,-1580,19.07,1427,3348,-5443
17135,0,10012,-13420,-1632,19.17,1251,3743,-5431
17158,0,9548,-13188,-2060,19.07,821,4983,-5118
17167,0,8480,-13972,-1612,19.12,374,5903,-5034
17177,0,8548,-14152,-1624,19.17,-206,6451,-5090
17186,0,8864,-14212,-1100,19.12,-715,6962,-5006
17195,0,9096,-14360,-768,19.02,-1178,7505,-4956
17207,0,8852,-14424,-436,19.12,-1572,8077,-4864
17217,0,9268,-14184,8,19.17,-1873,8568,-4787
17226,0,9820,-13792,1164,19.17,-2305,8511,-4677
17235,0,10440,-13644,384,19.12,-2857,8450,-4609
17245,0,10688,-13532,-428,19.12,-3513,8188,-4533
17254,0,11104,-13404,-304,19.17,-4195,8180,-4405
17264,0,11408,-13728,-764,19.21,-4502,8530,-4162
17273,0,11880,-14008,-1048,19.17,-4769,8760,-3872
17285,0,11888,-13240,-972,19.12,-5503,9111,-3510
17294,0,12392,-12752,-1100,19.17,-5598,9340,-3269
17304,0,11236,-11728,-1804,19.12,-5373,9480,-2874
17313,0,12084,-11620,-1224,19.07,-5475,9315,-2647
17323,0,11960,-11556,-1912,19.12,-5285,9379,-2417
17332,0,12084,-11228,-3216,19.26,-4910,9217,-2153
17341,0,11852,-11468,-1784,19.07,-4631,8684,-1791
17351,0,12808,-10532,-2632,19.12,-4182,8303,-1391
17360,0,11984,-10920,-2968,19.12,-3717,7883,-1141
17373,0,12092,-11080,-2512,19.07,-3098,7539,-646
17386,0,12768,-11096,-1852,19.12,-2561,6873,-293
17400,0,12260,-11692,-680,19.07,-2402,6379,45
17414,0,12092,-12076,-1056,19.07,-2339,5361,279
17428,0,11640,-12956,116,19.12,-2168,5858,572
17441,0,11068,-13816,428,19.17,-2103,5628,659
17453,0,11504,-13268,112,19.07,-2508,4995,566
17465,0,11660,-13472,-596,19.17,-3121,4365,349
17988,0,10564,-12216,-1060,19.12,-1326,5880,2764
17998,0,10048,-12424,-1204,19.21,-941,5694,3154
18006,0,9576,-11840,-1532,19.21,-756,5679,3457
18014,0,8428,-12400,-1808,19.17,-695,6129,3649
18022,0,7776,-12564,-1552,19.17,-790,6657,3733
18030,0,8196,-13148,-1028,19.07,-809,6958,3821
18038,0,8064,-13304,-596,19.12,-723,7065,3947
18047,0,7772,-13300,-444,19.21,-486,7206,4091
18058,0,7496,-13520,244,19.17,-460,7553,4270
18066,0,7976,-12788,1080,19.17,-364,7436,4547
18074,0,7672,-12468,1580,19.17,-199,7374,4887
18083,0,6144,-12860,992,19.17,7,7498,5150
18091,0,4292,-14492,320,19.21,364,7892,5202
18099,0,4328,-15236,1328,19.17,647,8292,5121
18108,0,4020,-15776,3252,19.07,504,8242,5012
18116,0,4900,-16064,4144,19.17,100,8138,4893
18126,0,6012,-15388,4432,19.17,-362,7688,4784
18134,0,6308,-14976,3300,19.17,-723,7293,4766
18142,0,6244,-14384,3488,19.17,-1064,7063,4702
18151,0,5732,-14564,2864,19.07,-1395,7031,4592
18159,0,4744,-15548,2600,19.12,-1590,7421,4272
18167,0,5172,-15304,2872,19.12,-1884,7371,3732
18176,0,5092,-16048,3732,19.21,-2353,6812,3151
18184,0,5780,-15348,3332,19.17,-2804,6423,2680
18193,0,6004,-14696,2296,19.17,-2883,6136,2362
18203,0,5928,-13680,2444,19.17,-2893,6090,2047
18211,0,5516,-14004,1504,19.17,-3059,5941,1829
18219,0,5128,-14192,1032,19.12,-3144,5642,1692
18228,0,4284,-14360,1392,19.12,-3254,5656,1474
18236,0,4136,-14396,-240,19.12,-3265,6061,1270
18245,0,4396,-14604,-336,19.26,-3360,5897,910
18253,0,5464,-14124,532,19.12,-3460,5666,702
18262,0,4944,-14276,1028,19.17,-2892,5846,597
18272,0,5508,-13476,964,19.12,-2355,6124,879
18280,0,5328,-13508,340,19.12,-1767,6228,1092
18288,0,4780,-13796,-692,19.12,-1206,6295,1266
18297,0,4460,-14684,-140,19.12,-964,6144,1317
18305,0,5112,-14512,184,19.17,-822,5862,1299
18326,0,4804,-14968,1620,19.12,-681,5201,1469
18335,0,5196,-14240,608,19.17,-103,5088,1615
18343,0,5332,-13568,1008,19.12,-63,4525,1418
18353,0,5956,-13748,612,19.17,-103,3843,1280
18361,0,3588,-15436,2256,19.17,366,4073,1182
18370,0,2220,-15960,1692,19.21,494,4381,903
18378,0,2296,-15580,1840,19.17,530,4650,530
18387,0,2804,-15792,2108,19.17,778,4901,437
18395,0,1852,-16956,3660,19.26,200,4591,282
18403,0,2840,-16320,3564,19.02,-15,4945,449
18412,0,2448,-15276,4420,19.12,-14,5599,623
18422,0,1524,-15784,3420,19.21,-215,6653,718
18430,0,2556,-14340,4108,19.21,-543,7393,778
18438,0,1596,-17532,1416,19.26,-1027,8192,815
18447,0,1940,-15632,4388,19.17,-1294,8380,793
18455,0,1556,-17212,4228,19.21,-1585,8711,1026
18464,0,1160,-18260,4256,19.26,-1973,8962,1333
18472,0,1828,-17772,4572,19.21,-2437,9367,1682
18480,0,2432,-17948,3856,19.21,-2823,9708,1935
18489,0,2596,-17720,4672,19.17,-3536,9841,2349
18499,0,3828,-16644,4228,19.12,-4338,10011,2774
18507,0,2476,-17112,3128,19.17,-4796,10031,2906
18515,0,2960,-16860,3368,19.17,-5150,10105,2876
18524,0,2716,-17172,3668,19.21,-5603,9690,2832
18532,0,2672,-16880,3664,19.17,-5729,9569,2885
18541,0,2892,-16432,2520,19.17,-5779,9439,2893
18549,0,2456,-15972,1368,19.12,-5565,9327,2862
18557,0,1900,-15700,1204,19.17,-5182,9223,2753
18574,0,2600,-16260,2968,19.17,-5172,8827,2426
18582,0,2560,-16288,2132,19.07,-5344,8612,2180
18591,0,2748,-16884,1908,19.07,-5314,8303,2047
18599,0,2728,-16528,1712,19.17,-5074,7864,1844
18608,0,4012,-15924,1012,19.17,-4838,7080,1446
18616,0,4368,-15604,-104,19.12,-4532,6333,970
18625,0,3076,-15680,1680,19.07,-3938,5619,521
18633,0,2668,-15892,324,19.17,-3479,5147,-32
18643,0,2088,-16524,956,19.17,-3064,4171,-685
18664,0,3020,-16056,460,19.17,-2373,2711,-2107
18672,0,2472,-16376,-32,19.21,-1885,2182,-2463
18681,0,1584,-16832,220,19.26,-1261,1814,-2674
18689,0,1652,-16864,108,19.17,-1106,1702,-2721
18698,0,964,-16948,320,19.12,-805,1603,-2608
18706,0,980,-15856,1128,19.12,-515,1337,-2223
18714,0,1072,-16340,596,19.07,-726,1614,-2093
18724,0,700,-16096,2104,19.17,-903,1386,-1813
18733,0,-704,-17428,2600,19.21,-986,2258,-1430
18741,0,-1316,-17456,1944,19.12,-1618,2693,-1291
18750,0,-824,-18292,2860,19.26,-1583,3002,-1179
18758,0,172,-18808,8392,19.07,-2281,3461,-1112
18767,0,1756,-19212,4236,19.17,-2656,4102,-733
18775,0,3444,-18376,2956,19.17,-2966,4129,-252
18783,0,4300,-17952,2824,19.12,-2762,4544,300
18792,0,3700,-17620,2516,19.17,-2518,4780,780
18802,0,2444,-17860,3112,19.17,-2497,5329,969
18811,0,1448,-17992,2788,19.21,-2550,5879,810
18819,0,1988,-17464,3648,19.07,-2584,5926,637
18827,0,3124,-16920,3520,19.12,-2547,5793,402
18836,0,3812,-16120,2896,19.17,-2340,5778,386
18844,0,3520,-15224,2524,19.26,-2093,5375,271
18853,0,2952,-14544,1900,19.12,-1865,4931,83
18861,0,2504,-14068,1240,19.17,-1732,4398,-128
18871,0,1100,-14024,1340,19.17,-1724,3883,-530
18880,0,-704,-14284,1156,19.21,-1801,3630,-1180
18888,0,-524,-14548,660,19.07,-2023,3477,-1890
18896,0,460,-14140,1832,19.17,-2382,2958,-2646
18905,0,732,-13516,1680,19.17,-2693,2230,-3267
18913,0,1088,-12244,1640,19.21,-2752,1504,-3787
18922,0,876,-11524,1652,19.17,-2778,577,-4131
18930,0,852,-10640,652,19.21,-2816,-172,-4787
18940,0,2640,-9656,800,19.17,-2786,-1249,-5317
18949,0,2988,-9476,88,19.26,-2713,-2054,-5672
18957,0,3628,-9112,-100,19.12,-2631,-2734,-5776
18966,0,4296,-8824,-792,19.17,-2765,-3268,-5916
18974,0,5916,-9052,-2376,19.17,-2487,-4087,-5910
18983,0,3788,-8552,-868,19.12,-2495,-4843,-5981
19004,0,5700,-8760,-1000,19.21,-1858,-6189,-5917
19013,0,6176,-8664,-3552,19.21,-1255,-5881,-5842
19021,0,4216,-11456,-3232,19.12,-575,-5700,-5739
19032,0,4472,-12972,-1560,19.07,-128,-5720,-5809
19040,0,5468,-14568,-1116,19.17,409,-5631,-5880
19049,0,5180,-16000,-244,19.17,525,-5554,-5977
19057,0,4804,-17324,1108,19.17,806,-5561,-6125
19066,0,3428,-18276,1620,19.17,1006,-5934,-6263
19074,0,3824,-19972,1652,19.07,954,-6306,-6366
19083,0,4588,-21484,2440,19.12,1060,-5741,-6485
19091,0,4028,-22480,4348,19.21,599,-5284,-6501
19101,0,3908,-24456,4900,19.07,-440,-4678,-6591
19115,0,4188,-25916,5812,19.12,-1850,-3546,-6335
19129,0,6032,-24692,5224,19.17,-3343,-1666,-6022
19142,0,7364,-22272,4484,19.12,-4152,-653,-5602
19156,0,8260,-19436,1132,19.21,-3999,328,-4972
19169,0,7984,-16736,-300,19.17,-3050,952,-4451
19182,0,7280,-16340,-964,19.21,-1884,838,-4089
19194,0,7548,-14596,-1456,19.26,-1008,729,-3638
19216,0,6772,-14776,-1168,19.07,748,903,-2965
19225,0,6408,-15032,-888,19.17,1247,901,-2878
19234,0,6236,-15552,164,19.21,1491,710,-2867
19243,0,6448,-15792,348,19.26,1642,409,-2900
19251,0,6920,-15548,340,19.17,1804,14,-2827
19260,0,7304,-15344,336,19.21,2046,-298,-2682
19269,0,7372,-15364,504,19.17,2114,-612,-2514
19278,0,7464,-15320,624,19.26,2175,-859,-2283
19289,0,7344,-15396,332,19.02,2362,-917,-1943
19298,0,7068,-15660,168,19.12,2394,-802,-1700
19307,0,7036,-15984,564,19.12,2290,-669,-1499
19316,0,6832,-16124,1080,19.12,2086,-551,-1198
19325,0,6972,-16168,1380,19.21,1830,-522,-979
19347,0,6676,-15480,908,19.17,1638,-617,-623
19357,0,6896,-15200,1100,19.17,1649,-759,-587
19366,0,7344,-15260,1520,19.12,1603,-1029,-612
19375,0,7356,-14964,1312,19.17,1570,-1225,-635
19386,0,7408,-15188,1140,19.12,1625,-1389,-686
19396,0,7468,-15192,1060,19.12,1664,-1427,-721
19405,0,7356,-15712,1472,19.26,1781,-1390,-764
19414,0,7256,-16028,1636,19.21,1800,-1327,-824
19423,0,6976,-16316,2288,19.12,1728,-1216,-896
19432,0,6664,-17140,2692,19.17,1660,-955,-1002
19441,0,6848,-17564,3144,19.17,1453,-694,-1106
19451,0,7408,-17780,3888,19.21,1227,-445,-1143
19462,0,7804,-17892,3684,19.12,970,-69,-1065
19471,0,8468,-17692,3768,19.07,739,208,-923
19480,0,8764,-17444,3820,19.17,518,567,-637
19489,0,8424,-17400,3752,19.21,280,967,-308
19498,0,8632,-17152,3360,19.12,56,1492,71
19507,0,8744,-16772,3696,19.17,-154,1902,417
19516,0,8516,-16448,3676,19.07,-524,2184,730
19526,0,8384,-16400,3800,19.21,-832,2535,1086
19537,0,8060,-15960,2980,19.17,-943,3104,1488
19546,0,7748,-15768,2968,19.12,-1106,3543,1774
19556,0,7164,-15364,2584,19.07,-1232,3937,1917
19565,0,6916,-15048,2076,19.26,-1199,4221,2152
19574,0,7016,-14708,2244,19.17,-1287,4382,2280
19583,0,6556,-14560,1452,19.17,-1359,4546,2393
19592,0,6768,-14244,928,19.17,-1258,4443,2459
19601,0,6780,-14104,1580,19.07,-1269,4322,2482
19626,0,7056,-14576,2032,19.21,-1488,3293,2443
19635,0,6840,-14948,1128,19.21,-1580,3019,2326
19645,0,6792,-15188,1760,19.21,-1579,2949,2123
19654,0,6624,-15588,2160,19.12,-1637,2937,1955
19663,0,6792,-15452,2856,19.17,-1935,2936,1768
19672,0,6488,-15624,2724,19.21,-2142,2948,1582
19682,0,5928,-15756,1988,19.12,-2302,2955,1332
19691,0,5564,-16000,2668,19.17,-2509,3080,1014
19700,0,5588,-15976,2496,19.17,-2747,3217,679
19712,0,5372,-16204,2628,19.26,-3110,3305,326
19721,0,5320,-16160,2648,19.17,-3299,3397,87
19730,0,5416,-16320,2268,19.12,-3549,3351,-177
19739,0,5600,-15980,2392,19.17,-3758,3224,-407
19748,0,5664,-15484,2212,19.17,-3929,3147,-574
19758,0,5908,-14980,1988,19.17,-3981,2951,-701
19767,0,6140,-14456,2052,19.26,-4083,2627,-728
19776,0,6264,-14276,1644,19.17,-4092,2282,-774
19787,0,5944,-14076,1436,19.21,-4023,2039,-676
19797,0,6040,-14200,1600,19.12,-4005,1899,-492
19806,0,6032,-14348,1796,19.17,-4106,1774,-289
19815,0,5752,-14712,1896,19.21,-4120,1854,-47
19824,0,5336,-15040,1480,19.21,-4161,1893,153
19833,0,5152,-15380,1436,19.17,-4222,2022,244
19842,0,5168,-15724,1660,19.17,-4361,2045,216
19852,0,5212,-15412,1988,19.12,-4576,1904,299
19870,0,5084,-15052,1428,19.12,-4567,1633,215
19879,0,5360,-14904,1796,19.17,-4497,1374,131
19902,0,5080,-15236,1364,19.17,-4573,1253,-12
19911,0,5348,-15196,848,19.21,-4522,1320,-100
19920,0,4856,-14940,332,19.12,-4471,1479,-135
19929,0,5848,-15028,956,19.26,-4445,1636,-161
19938,0,5612,-15056,1412,19.21,-4350,1646,-246
19948,0,6036,-14500,1476,19.17,-4288,1544,-245
19959,0,6060,-15512,1752,19.17,-4157,1370,-356
19969,0,6468,-15572,-592,19.21,-4238,1246,-511
19978,0,6564,-14812,1024,19.12,-4145,815,-549
19987,0,6904,-15004,1512,19.21,-3974,498,-602
19996,0,6880,-15668,-1040,19.17,-4011,547,-789
20005,0,5820,-15776,464,19.21,-3754,168,-867
20015,0,5972,-16588,-424,19.07,-3611,101,-1040
20025,0,5988,-16776,52,19.21,-3479,-49,-1253
20034,0,6600,-17196,-412,19.12,-3291,-145,-1452
20046,0,6476,-16876,-916,19.07,-2957,-421,-1580
20055,0,7420,-16496,-1576,19.26,-2582,-703,-1537
20064,0,7104,-16040,-128,19.17,-2280,-1264,-1430
20073,0,7560,-16308,-48,19.17,-2064,-1513,-1212
20082,0,6988,-16000,1216,19.26,-2140,-1677,-1070
20092,0,7024,-15968,-84,19.12,-2004,-1452,-837
20101,0,6396,-15472,2020,19.12,-2287,-1144,-781
20110,0,6588,-16088,-276,19.17,-2007,-633,-445
20122,0,6928,-15476,-956,19.17,-1606,-91,25
20131,0,6480,-14844,-336,19.17,-1101,490,283
20140,0,6468,-15772,1816,19.21,-1122,1274,480
20149,0,7492,-15368,-300,19.31,-688,1442,765
20159,0,7076,-15416,-1136,19.17,50,1660,974
20181,0,6244,-16620,-284,19.12,1115,1914,1243
20190,0,6476,-17384,8,19.17,1081,1606,1204
20199,0,6884,-17192,816,19.12,954,1336,1180
20211,0,6844,-16836,1832,19.12,718,597,1151
20220,0,6900,-16264,1624,19.17,648,-244,1300
20229,0,6764,-15752,2184,19.12,494,-901,1513
20239,0,6980,-15100,2060,19.21,299,-1434,1719
20248,0,7044,-15580,640,19.17,89,-1534,2003
20257,0,6264,-15364,728,19.12,48,-1526,2276
20266,0,6024,-15988,272,19.21,11,-1111,2468
20276,0,5752,-16336,-244,19.21,-92,-712,2592
20287,0,5612,-16260,-308,19.21,-278,-421,2730
20296,0,5440,-15920,-256,19.26,-407,-124,2897
20306,0,5432,-15756,-8,19.17,-482,61,3004
20315,0,5888,-15700,-568,19.17,-404,227,3125
20324,0,5868,-15828,-936,19.21,-414,406,3220
20333,0,5412,-16280,196,19.12,-441,616,3291
20343,0,5580,-16816,-280,19.17,-464,748,3284
20352,0,5456,-17096,320,19.17,-739,826,3258
20361,0,5464,-17228,352,19.21,-1117,838,3168
20373,0,4924,-17272,604,19.26,-1540,621,3034
20382,0,4824,-17064,1436,19.21,-1961,370,2906
20391,0,5404,-16556,392,19.21,-2429,180,2850
20400,0,4936,-16680,912,19.26,-2786,92,2773
20410,0,4692,-16592,196,19.21,-2967,-6,2809
20419,0,5284,-16172,-212,19.21,-3236,-164,2812
20428,0,4796,-16616,-340,19.31,-3444,-253,2873
20437,0,4196,-17264,-864,19.12,-3531,152,2785
20463,0,4808,-17752,352,19.17,-4251,794,2603
20476,0,3520,-17860,552,19.17,-4789,356,2209
20490,0,3392,-17416,1184,19.12,-5028,-143,1942
20503,0,2868,-17216,204,19.17,-5168,-527,1949
20517,0,3724,-16112,-1096,19.21,-5364,-750,2180
20530,0,3144,-16292,-1680,19.17,-5277,-511,2448
20543,0,2516,-15816,-1332,19.21,-5194,-261,2768
20554,0,1600,-16452,-1916,19.17,-4902,-582,3077
20577,0,3264,-15512,-2340,19.17,-4263,-1738,3813
20586,0,1872,-15636,-1652,19.17,-3876,-2069,4403
20595,0,2240,-14832,-2340,19.21,-3533,-2335,4864
20604,0,1236,-15624,-2392,19.12,-3185,-2671,5276
20612,0,804,-15236,-1796,19.17,-3049,-2977,5601
20621,0,864,-14620,-856,19.17,-2875,-3177,5813
20630,0,1764,-15348,-2532,19.07,-2859,-3007,6068
20639,0,2592,-14944,-2720,19.26,-2472,-3429,6328
20650,0,3544,-14140,-2740,19.21,-1936,-3887,6875
20659,0,6636,-15256,-3684,19.17,-1438,-4571,7442
20668,0,5384,-12524,-4360,19.17,-300,-5187,8213
20677,0,-300,-14236,-3276,19.17,707,-4491,8671
20686,0,1080,-15032,-740,19.26,338,-3739,8418
20695,0,872,-15788,-3960,19.26,1343,-4706,8404
20704,0,1060,-16076,-416,19.26,1225,-4323,7990
20713,0,1216,-15108,-1440,19.17,1583,-4280,7733
20723,0,1948,-15836,-1572,19.17,1850,-4396,7613
20734,0,1956,-17080,-332,19.17,2052,-4200,7444
20743,0,208,-18808,-532,19.17,2305,-3635,7106
20752,0,-1156,-20468,-464,19.21,2513,-3425,6501
20761,0,-2612,-20528,1688,19.21,2119,-3018,5751
20784,0,-616,-20784,-132,19.17,1331,-1360,3782
20793,0,-952,-20984,244,19.07,1007,-740,3045
20802,0,-440,-20156,-40,19.17,778,-134,2299
20811,0,284,-18932,-880,19.17,898,-127,1757
20822,0,16,-18472,-24,19.21,890,-99,1268
20831,0,372,-17596,-608,19.12,848,-117,1010
20840,0,-260,-17520,-1412,19.17,1027,-184,743
20850,0,-1160,-18024,-968,19.21,1060,55,435
20859,0,-1324,-17784,-556,19.17,917,276,-74
20868,0,-1244,-18080,-256,19.17,658,215,-627
20877,0,-124,-18048,-252,19.07,577,0,-1177
20886,0,296,-18012,-1032,19.21,619,-186,-1603
20897,0,368,-17112,-1812,19.07,856,-43,-2123
20906,0,700,-16908,-2744,19.26,1230,156,-2428
20916,0,784,-16024,-3276,19.26,1646,118,-2682
20925,0,528,-15452,-3452,19.17,2247,518,-2755
20934,0,432,-14976,-2940,19.21,2808,762,-2846
20943,0,672,-14704,-2984,19.21,3459,1071,-2993
20952,0,500,-15316,-1732,19.12,3955,845,-3315
20961,0,1396,-14696,-1412,19.21,4349,196,-3505
20972,0,2236,-13372,740,19.26,4702,-723,-3487
20981,0,424,-14120,1464,19.26,4463,-1876,-3672
20990,0,324,-14276,2780,19.12,4239,-2418,-3757
21000,0,644,-12664,3584,19.12,3841,-2833,-3657
21009,0,-764,-12484,3476,19.17,3477,-2972,-3862
21018,0,636,-11732,2888,19.12,2958,-2615,-4007
21027,0,2560,-12184,1740,19.21,2715,-2626,-3765
21036,0,3064,-11976,4656,19.12,2664,-1869,-3255
21058,0,1748,-12028,3436,19.21,2802,1173,-2274
21070,0,928,-13176,3632,19.17,2588,2694,-2147
21080,0,668,-13708,4008,19.17,2170,3088,-2462
21089,0,432,-14692,4848,19.26,1253,3415,-3067
21098,0,2064,-15576,3448,19.17,347,3660,-3690
21107,0,3520,-16028,5600,19.26,-590,3919,-4143
21116,0,4260,-16904,3088,19.12,-1577,4236,-4530
21125,0,4980,-16220,3120,19.17,-2073,4058,-4790
21135,0,5372,-15820,2356,19.21,-2248,3670,-4950
21146,0,3380,-16240,-3264,19.17,-1856,3640,-5411
21155,0,2652,-15204,-1484,19.21,-1875,3403,-5693
21164,0,3296,-14424,-2844,19.12,-2037,3027,-6081
21174,0,2448,-15376,-3540,19.17,-1966,2634,-6387
21183,0,3324,-14320,-1552,19.31,-2027,1929,-6473
21192,0,2232,-14644,-1200,19.12,-2005,1166,-6751
21201,0,1084,-15976,-192,19.17,-2467,31,-7080
21210,0,956,-16732,204,19.21,-2897,-595,-7364
21229,0,-500,-17648,1940,19.21,-3396,-668,-8193
21238,0,552,-18160,2264,19.17,-3707,-497,-8506
21247,0,856,-18296,2904,19.21,-4314,-304,-8602
21257,0,4036,-17544,3396,19.17,-4614,-173,-8275
21267,0,4340,-18452,2684,19.21,-5093,-613,-7737
21276,0,7224,-17496,1432,19.17,-4959,-464,-7019
21285,0,7232,-18932,736,19.12,-4891,-50,-5971
21294,0,6756,-19912,1112,19.12,-4567,482,-4723
21306,0,6936,-18972,1384,19.31,-3938,1353,-3274
21315,0,6876,-19500,964,19.17,-4052,2018,-2059
21338,0,4292,-17124,1236,19.17,-4501,2610,222
21348,0,4136,-17248,1684,19.12,-3986,2625,877
21357,0,3404,-16968,1444,19.17,-3868,2416,1451
21366,0,2956,-16116,296,19.21,-3817,2725,1913
21375,0,2976,-15788,-732,19.17,-3593,2511,2206
21385,0,3360,-14984,-1268,19.17,-3250,2439,2428
21394,0,3076,-15016,-2808,19.21,-2577,2440,2641
21405,0,4736,-14744,-3524,19.21,-1648,1849,2781
21414,0,4812,-14580,-3484,19.26,-800,1501,2875
21424,0,4052,-14332,-3080,19.12,65,1103,2821
21433,0,3804,-14624,-2976,19.17,872,446,2462
21442,0,3596,-14904,-828,19.17,1277,-592,1941
21451,0,4384,-15288,-1740,19.21,1715,-1419,1392
21461,0,3828,-15144,-596,19.12,1969,-1850,725
21470,0,3504,-15728,-2440,19.17,2036,-1911,-25
21481,0,3184,-16352,-2580,19.07,2820,-1557,-760
21490,0,2504,-17656,-1716,19.17,2933,-1121,-1219
21500,0,2388,-17892,-4000,19.12,3279,-277,-1809
21509,0,2272,-17364,-2800,19.17,3510,291,-2313
21518,0,2008,-18240,296,19.31,3243,402,-2846
21527,0,1272,-18696,1240,19.17,2682,371,-3481
21536,0,2064,-19208,-60,19.21,2472,31,-3999
21546,0,2616,-20864,1284,19.26,1909,268,-4560
21557,0,2216,-19220,3164,19.21,1128,210,-4961
21566,0,3476,-19088,2688,19.26,780,502,-5028
21576,0,3988,-18248,1816,19.21,201,472,-5075
21585,0,3188,-18012,1568,19.17,-12,893,-4829
21594,0,3512,-18560,1384,19.17,-384,855,-4576
21616,0,4792,-17072,1480,19.31,-923,1704,-3865
21625,0,5320,-16592,1180,19.17,-994,1585,-3277
21634,0,5552,-16464,2304,19.31,-1129,1409,-2695
21643,0,5208,-16728,2680,19.17,-1452,1134,-2284
21655,0,5272,-16364,1876,19.21,-1391,827,-1849
21664,0,5420,-16112,1560,19.17,-1397,708,-1703
21673,0,5176,-16376,1848,19.26,-1239,493,-1595
21683,0,5064,-15740,2048,19.21,-1074,344,-1598
21692,0,5132,-15560,1668,19.21,-973,341,-1666
21701,0,5244,-15448,1428,19.26,-868,412,-1729
21710,0,5476,-15692,1740,19.07,-621,416,-1745
21719,0,5860,-15456,1820,19.21,-482,516,-1740
21731,0,6164,-15984,1688,19.31,-261,702,-1578
21740,0,6856,-16120,1552,19.17,-254,1163,-1398
21750,0,6916,-16416,1920,19.17,-232,1657,-1107
21759,0,7352,-16460,1888,19.12,-209,2147,-756
21768,0,7104,-16748,2060,19.12,-161,2666,-417
21777,0,7128,-16908,2284,19.21,-195,3200,7
21787,0,6900,-17212,2304,19.26,-336,3816,335
21796,0,7036,-17316,2676,19.17,-576,4221,657
21808,0,6840,-17400,2564,19.17,-922,4728,1023
21821,0,6420,-17160,2224,19.21,-1192,5506,1493
21834,0,6080,-17256,1964,19.26,-1663,6117,1799
21848,0,6180,-17156,1424,19.17,-1953,6324,2138
21862,0,5860,-16844,52,19.21,-2292,6716,2434
21875,0,4736,-17176,124,19.17,-2641,6746,2519
21887,0,4512,-16612,-336,19.21,-2955,6788,2418
21899,0,4412,-16212,-1428,19.21,-2853,6862,2401
21920,0,3980,-15244,-1992,19.21,-2636,6533,2122
21942,0,3376,-14396,-1108,19.17,-2241,4586,1493
21951,0,2580,-13980,-2632,19.17,-2332,3947,1008
21960,0,2788,-14164,-1844,19.17,-2153,2486,694
21968,0,2348,-13964,-1336,19.26,-2156,1697,396
21977,0,2752,-13604,-164,19.26,-2080,891,90
21986,0,2868,-13604,-484,19.21,-2029,446,-237
21994,0,4148,-13116,440,19.21,-2049,113,-576
22003,0,2980,-14072,-1000,19.26,-2067,-151,-945
22014,0,2640,-14112,-108,19.17,-2155,-518,-1558
22023,0,2332,-13808,-412,19.17,-2181,-1126,-2012
22032,0,3096,-13940,56,19.17,-2075,-1753,-2323
22041,0,3916,-13884,-296,19.21,-1880,-2159,-2547
22051,0,4088,-13332,80,19.26,-1846,-2635,-2743
22060,0,4780,-13240,-308,19.21,-1819,-2996,-2859
22069,0,4680,-14196,-504,19.21,-1801,-3009,-3020
22078,0,4520,-14556,340,19.26,-1525,-2878,-3046
22090,0,4404,-14548,-156,19.17,-1327,-2436,-3087
22099,0,4516,-15380,-72,19.31,-1055,-2142,-3112
22108,0,4592,-15968,-884,19.21,-847,-2033,-3181
22117,0,4268,-16636,764,19.12,-708,-2071,-3162
22126,0,3624,-17500,1884,19.21,-537,-2104,-3112
22135,0,3476,-19668,1868,19.21,-701,-1798,-3200
22144,0,3716,-19968,2900,19.21,-771,-1503,-3222
22153,0,3808,-20652,2496,19.12,-837,-1067,-3246
22164,0,4760,-21012,2340,19.17,-768,-606,-3159
22173,0,5736,-20308,1512,19.17,-361,51,-2831
22182,0,6428,-19464,788,19.21,-22,261,-2420
22191,0,6796,-18732,1552,19.26,405,254,-1960
22213,0,5716,-16632,652,19.12,657,-352,-1099
22222,0,5728,-16668,1960,19.12,625,-708,-923
22232,0,5864,-15940,2060,19.12,475,-569,-816
22241,0,6684,-16156,3720,19.17,295,-556,-653
22252,0,10612,-16020,2800,19.17,16,216,-488
22261,0,7836,-13236,3948,19.17,-266,1082,-1040
22270,0,8004,-12992,5044,19.17,-261,3066,-1951
22279,0,8392,-10632,5640,19.17,-143,5467,-2917
22288,0,8396,-14048,5500,19.26,726,7039,-3240
22297,0,8896,-13472,2776,19.17,858,7402,-3391
22306,0,7444,-15656,580,19.35,933,6578,-3907
22316,0,6996,-16108,912,19.21,888,5668,-4455
22325,0,7640,-15736,12,19.21,565,5037,-4705
22336,0,8196,-15024,32,19.26,175,4941,-4602
22345,0,8420,-14388,-660,19.26,-351,4397,-4524
22354,0,7004,-14492,704,19.21,-1061,3231,-4237
22363,0,6288,-15256,-404,19.21,-2166,2862,-3874
22373,0,5420,-16160,-396,19.26,-3087,3312,-3338
22382,0,4204,-17068,1620,19.21,-4327,3946,-2740
22391,0,4156,-17932,468,19.17,-5229,4552,-2183
22400,0,4420,-17920,376,19.17,-5610,4936,-1546
22411,0,5052,-17556,52,19.21,-5728,4633,-1228
22420,0,5344,-15624,540,19.12,-5228,3185,-1299
22430,0,6264,-14788,-236,19.26,-4062,2002,-1359
22439,0,6488,-15096,-916,19.17,-2786,982,-1490
22448,0,5524,-16384,428,19.12,-1661,16,-1575
22457,0,6356,-18252,408,19.17,-926,-482,-1433
22466,0,7696,-19532,624,19.17,-389,-854,-950
22488,0,6420,-18628,1560,19.21,-131,-2058,530
22500,0,5648,-16840,2144,19.17,-227,-2188,757
22509,0,5340,-16012,1028,19.17,-366,-2233,664
22518,0,5792,-14512,-680,19.31,-440,-2367,341
22527,0,6344,-14832,-444,19.12,-687,-2422,-32
22536,0,7168,-15004,-592,19.17,-564,-1423,27
22546,0,8144,-14904,120,19.17,-685,-651,204
22556,0,8140,-14984,252,19.26,-898,-66,360
22566,0,8352,-15176,416,19.12,-956,214,514
22584,0,6320,-14384,212,19.17,-628,-134,422
22593,0,6240,-14248,400,19.21,-213,-160,572
22602,0,5552,-14128,1040,19.21,-465,98,576
22611,0,4736,-13588,400,19.26,-528,304,556
22620,0,4324,-13876,-736,19.17,-332,717,494
22630,0,4132,-14220,-264,19.26,-5,1127,215
22639,0,4784,-14984,1492,19.26,-29,1173,-2
22648,0,4572,-15268,188,19.21,-142,1203,-150
22657,0,2296,-18732,-4644,19.17,-224,1129,-276
22669,0,5420,-15152,-612,19.17,-91,1123,-49
22678,0,5488,-14860,2192,19.17,-191,895,-78
22687,0,5992,-15168,184,19.21,69,1169,-41
22696,0,6480,-14888,-916,19.12,366,1216,215
22705,0,6696,-15092,-1144,19.17,461,1100,453
22715,0,6616,-14768,-900,19.21,511,856,600
22724,0,6712,-15200,-160,19.26,580,282,521
22733,0,6416,-15832,1072,19.26,519,-86,318
22745,0,6236,-16780,1180,19.17,539,-491,213
22767,0,5652,-16720,5052,19.21,84,-1573,78
22776,0,8648,-15368,284,19.17,541,123,141
22785,0,6936,-16452,1820,19.21,198,-811,228
22795,0,6984,-17248,628,19.17,402,-1134,325
22804,0,8164,-16136,808,19.31,578,-889,398
22813,0,7492,-15596,700,19.21,741,-1192,616
22822,0,7088,-15404,1032,19.21,882,-1124,787
22834,0,5820,-15752,2608,19.26,737,-846,1001
22843,0,8092,-15100,876,19.21,949,-1631,1068
22852,0,6416,-15020,2372,19.26,1261,-2079,1345
22862,0,6020,-15136,1540,19.17,1344,-1489,1623
22871,0,5808,-15404,1284,19.31,1474,-1175,1782
22880,0,6768,-14972,904,19.21,1384,-550,2072
22890,0,7008,-14832,1100,19.17,1268,-110,2428
22899,0,7468,-14888,-1104,19.17,1650,-229,2795
22910,0,6808,-15032,-324,19.21,1986,545,3190
22920,0,5904,-16016,8,19.21,1959,788,3457
22929,0,5388,-16676,872,19.17,1843,998,3548
22938,0,5276,-18344,172,19.17,1772,1216,3500
22947,0,4152,-18160,3260,19.21,1250,1308,3102
22956,0,3492,-17800,3936,19.07,1243,997,2616
22966,0,4388,-18024,6504,19.17,388,2019,2320
22975,0,4248,-16176,960,19.21,778,1677,2204
22984,0,6124,-14352,-892,19.17,1134,1480,2272
22996,0,6516,-14036,560,19.12,1670,1597,2477
23005,0,6408,-14832,384,19.21,1700,2215,2453
23014,0,5744,-15624,604,19.26,1548,2612,2255
23023,0,4552,-16340,1544,19.26,1297,2691,1945
23045,0,2792,-16604,1652,19.21,802,2642,1171
23055,0,2160,-16492,1384,19.21,704,2787,773
23064,0,1752,-16784,2004,19.21,640,3010,416
23073,0,2220,-16288,2076,19.17,506,3286,49
23085,0,2732,-16484,2940,19.31,315,3488,-400
23094,0,3436,-16176,3160,19.12,226,3788,-498
23104,0,3932,-15860,3072,19.17,274,3722,-690
23113,0,4144,-15468,2928,19.17,310,3336,-767
23122,0,4364,-15148,3068,19.26,336,2729,-895
23131,0,4776,-15116,3224,19.12,372,2244,-1051
23141,0,4832,-15156,2904,19.21,446,1832,-1201
23150,0,5104,-15220,2584,19.17,504,1599,-1326
23162,0,4924,-15408,2952,19.26,593,1189,-1407
23175,0,5120,-15344,3676,19.26,581,1042,-1415
23189,0,5336,-15340,3800,19.21,451,747,-1398
23202,0,5296,-15156,3872,19.12,143,528,-1382
23216,0,5260,-14816,3920,19.17,-216,270,-1270
23228,0,5524,-14752,3788,19.17,-556,116,-1200
23240,0,5860,-14884,3188,19.12,-724,33,-1065
23253,0,5944,-14812,2760,19.31,-828,32,-826
23273,0,6260,-15132,2748,19.26,-984,50,-485
23282,0,6252,-15200,3188,19.21,-1097,-171,-381
23291,0,6244,-15340,3432,19.12,-1255,-322,-279
23300,0,6456,-15448,2648,19.17,-1278,-180,-168
23309,0,5868,-15664,2244,19.21,-1184,3,-61
23318,0,5508,-15584,2192,19.21,-1123,340,0
23327,0,5032,-15732,1840,19.26,-950,671,11
23335,0,4724,-15624,2348,19.26,-872,1022,-43
23344,0,4568,-15756,2680,19.12,-845,1337,-193
23368,0,4516,-15996,2912,19.17,-1123,1734,-722
23377,0,4544,-15932,2612,19.21,-1307,1918,-908
23386,0,4460,-15708,2016,19.31,-1329,2244,-1074
23395,0,4384,-15656,1400,19.31,-1303,2647,-1207
23404,0,4876,-15736,1148,19.31,-1178,2955,-1307
23413,0,5584,-15760,1676,19.21,-1104,3180,-1316
23422,0,6080,-15908,2584,19.31,-1024,3362,-1298
23431,0,6596,-16456,3212,19.21,-1102,3208,-1283
23443,0,6676,-16764,3352,19.26,-1264,2960,-1168
23452,0,5904,-16920,3556,19.26,-1466,2766,-1157
23461,0,5196,-17128,3744,19.17,-1639,2506,-1186
23470,0,4236,-17312,3884,19.12,-1808,2636,-1297
23479,0,3828,-17228,3248,19.21,-1779,3019,-1345
23488,0,3836,-17776,2916,19.21,-1495,3097,-1397
23497,0,3612,-17928,3244,19.31,-1370,3162,-1338
23506,0,3856,-17656,2644,19.26,-1104,2981,-1225
23518,0,4432,-16400,2708,19.26,-705,2293,-1069
23527,0,4116,-16556,3692,19.21,-547,1498,-1125
23536,0,4248,-16200,3688,19.21,-547,914,-1210
23545,0,4328,-15668,3572,19.21,-534,565,-1262
23554,0,4440,-15548,2908,19.12,-562,102,-1333
23563,0,4020,-15392,2372,19.26,-454,-434,-1434
23572,0,3760,-15372,2428,19.17,-334,-1113,-1573
23581,0,3980,-15360,2748,19.17,-310,-1611,-1756
23593,0,4616,-15068,2900,19.17,-300,-2208,-1871
23602,0,5180,-14876,3392,19.12,-308,-2551,-1927
23611,0,5656,-14832,3804,19.31,-336,-2912,-1938
23620,0,5832,-14600,3772,19.31,-414,-3231,-1884
23642,0,5716,-14812,3360,19.21,-518,-3275,-1835
23651,0,5960,-14384,3284,19.21,-517,-2964,-1803
23660,0,5856,-14560,3420,19.17,-573,-2654,-1730
23669,0,5772,-14300,3112,19.07,-577,-2481,-1621
23678,0,6492,-14948,3304,19.17,-420,-2335,-1518
23689,0,6068,-16056,3412,19.21,-399,-2105,-1500
23699,0,5908,-15940,2780,19.12,-350,-1825,-1578
23708,0,5828,-15644,2912,19.17,-238,-1504,-1589
23717,0,5604,-16100,2688,19.21,-302,-1344,-1747
23727,0,5716,-15716,2352,19.26,-256,-889,-1794
23736,0,5948,-15476,2652,19.12,-328,-642,-1904
23745,0,6436,-15396,2236,19.21,-391,-423,-1942
23754,0,6736,-15184,2824,19.17,-426,-138,-1911
23765,0,7400,-15416,2796,19.12,-500,31,-1695
23775,0,7564,-15576,2852,19.17,-628,187,-1549
23784,0,7264,-15448,2660,19.31,-705,343,-1395
23793,0,6872,-15168,2640,19.26,-782,613,-1352
23802,0,6700,-15248,2904,19.26,-912,914,-1397
23811,0,6560,-15540,3152,19.31,-1166,1240,-1489
23820,0,6512,-15848,3580,19.17,-1397,1491,-1588
23829,0,6132,-16508,3300,19.17,-1686,1883,-1555
23841,0,7232,-15228,2324,19.21,-1460,2569,-1191
23850,0,8016,-15584,3396,19.17,-1060,2132,-1205
23859,0,8596,-16468,1992,19.26,-1645,1655,-1179
23868,0,7976,-16564,3632,19.21,-944,1857,-777
23877,0,7632,-16896,3888,19.17,-1278,1229,-652
23886,0,5824,-17948,2888,19.17,-1932,1817,-244
23895,0,5868,-15672,2908,19.21,-1180,2215,239
23917,0,7124,-14304,1584,19.26,-1248,1449,898
23936,0,5420,-16108,4164,19.21,-1070,-130,888
23945,0,5572,-16272,2864,19.17,-1207,-135,683
23954,0,4828,-17168,4044,19.17,-1068,52,452
23963,0,4500,-17392,3256,19.17,-1381,343,-43
23972,0,5300,-15644,1832,19.17,-1327,721,-352
23982,0,5176,-15756,3380,19.21,-1349,1043,-579
23991,0,6148,-14920,2252,19.26,-1582,1111,-865
24000,0,6188,-14604,2560,19.21,-1436,1167,-960
24009,0,6464,-14672,2576,19.17,-1329,898,-1021
24021,0,6392,-14612,2208,19.17,-1152,680,-1031
24030,0,6140,-14644,2276,19.21,-1136,533,-966
24039,0,5944,-14948,2360,19.17,-1108,501,-993
24048,0,5188,-15368,2752,19.17,-1099,548,-959
24058,0,5308,-15368,3224,19.26,-772,723,-925
24068,0,5912,-15156,2908,19.21,-661,392,-965
24077,0,6184,-15540,2848,19.17,-568,109,-945
24086,0,5904,-15656,3028,19.17,-730,-117,-963
24098,0,7144,-15844,3264,19.17,-835,-269,-966
24107,0,6440,-15264,1932,19.21,-1071,-613,-872
24116,0,6864,-15516,3680,19.26,-940,-607,-780
24126,0,6628,-15332,3208,19.26,-844,-691,-502
24135,0,6856,-15488,3068,19.17,-830,-870,-389
24145,0,6612,-14920,3500,19.21,-924,-858,-337
24154,0,6448,-15676,2668,19.21,-1021,-845,-421
24163,0,6252,-15448,3228,19.31,-1039,-724,-461
24175,0,6420,-15084,3556,19.21,-842,-277,-319
24197,0,7016,-15860,2820,19.21,-490,-418,-267
24206,0,6500,-15360,2860,19.26,-612,-481,-305
24215,0,6084,-15172,3024,19.21,-686,-472,-439
24225,0,5980,-15384,3032,19.26,-549,-411,-534
24234,0,5944,-15260,2848,19.26,-491,-570,-672
24243,0,6140,-15268,3076,19.21,-465,-713,-799
24252,0,6364,-15032,2056,19.17,-269,-757,-783
24261,0,6372,-15168,2680,19.17,-353,-555,-872
24273,0,6400,-15384,2888,19.26,-289,-620,-938
24282,0,6464,-15344,2392,19.21,-337,-760,-1061
24291,0,6224,-14896,2356,19.26,-286,-888,-1241
24300,0,6476,-15180,2852,19.21,-187,-929,-1470
24310,0,6328,-16020,2844,19.21,-219,-1102,-1736
24319,0,6300,-15840,3084,19.17,-289,-1203,-2001
24328,0,6268,-15944,2912,19.26,-323,-1253,-2280
24337,0,6412,-15820,2900,19.21,-302,-1304,-2564
24349,0,6564,-15464,2536,19.26,-281,-1497,-2949
24358,0,6980,-15416,3088,19.26,-308,-1541,-3199
24368,0,7576,-15480,2768,19.17,-249,-1511,-3343
24377,0,7420,-15276,3336,19.21,-82,-1491,-3390
24386,0,7348,-15524,3212,19.31,60,-1316,-3298
24395,0,7452,-15520,3348,19.17,216,-1150,-3132
24405,0,7468,-15380,3440,19.26,244,-1075,-2832
24414,0,7500,-15344,3508,19.17,283,-888,-2511
24425,0,7824,-14988,3024,19.26,284,-660,-1997
24435,0,7608,-14256,3248,19.17,265,-590,-1722
24444,0,7188,-14592,3136,19.17,372,-220,-1410
24453,0,7388,-14772,3536,19.17,498,-86,-1133
24475,0,7684,-16400,528,19.17,-1072,89,-644
24484,0,7140,-14460,4280,19.17,-797,-37,-796
24494,0,6700,-15548,3172,19.17,-704,133,-826
24503,0,6896,-15168,2592,19.26,-1029,-1,-938
24515,0,7084,-15208,2552,19.21,-1324,408,-879
24528,0,7184,-14608,2744,19.17,-1728,802,-871
24542,0,7424,-14300,2224,19.17,-2047,1103,-822
24556,0,7664,-14340,2628,19.26,-1902,1454,-691
24569,0,8028,-14544,2616,19.17,-1660,1593,-529
24582,0,7964,-14328,2192,19.26,-1651,1563,-349
24593,0,7512,-14656,2832,19.17,-1733,1605,-240
24606,0,7780,-14928,824,19.26,-2119,1580,-57
24618,0,7532,-13552,2236,19.21,-2235,1737,120
24640,0,8224,-14780,2952,19.17,-1667,1182,26
24649,0,7988,-15072,3048,19.21,-1603,1380,-34
24657,0,6448,-14456,3480,19.21,-1569,1480,-1
24666,0,7096,-14784,2588,19.21,-1730,1489,-93
24675,0,7660,-14708,3376,19.17,-1931,1419,-295
24683,0,7828,-14548,4284,19.17,-1651,1512,-313
24692,0,7364,-15316,3348,19.12,-1478,1374,-520
24701,0,7764,-14928,3360,19.12,-1485,1270,-505
24712,0,7436,-15180,2796,19.21,-1468,1345,-480
24721,0,7280,-15028,2864,19.21,-1534,1279,-518
24730,0,7112,-15220,3424,19.17,-1463,1258,-551
24739,0,7044,-15388,3000,19.17,-1205,1132,-524
24749,0,6692,-14996,2912,19.26,-918,1003,-544
24758,0,6484,-15244,2324,19.21,-723,843,-438
24767,0,6136,-14580,2172,19.12,-561,528,-382
24776,0,292,-12652,-2532,19.21,-1230,182,-915
24787,0,5728,-17444,-2816,19.31,-2351,-575,-1106
24810,0,8180,-14672,1916,19.17,-1776,-656,-1543
24819,0,8676,-14068,2640,19.17,-1582,-383,-1418
24828,0,8412,-14196,2128,19.26,-1369,-355,-1239
24837,0,8284,-14380,1624,19.26,-1332,-434,-1285
24846,0,8320,-14104,2144,19.26,-1241,-176,-1175
24855,0,8128,-14280,2404,19.21,-883,-66,-1116
24864,0,8052,-14764,3244,19.21,-675,-129,-1089
24875,0,7480,-15256,3316,19.17,-534,-127,-978
24884,0,7100,-15292,2988,19.17,-512,-97,-865
24893,0,6816,-15292,3064,19.26,-655,-64,-842
24903,0,6568,-15136,3024,19.17,-778,-36,-819
24912,0,6400,-14588,3108,19.17,-966,-121,-797
24921,0,6516,-14080,3036,19.21,-1022,-203,-807
24930,0,6392,-14152,3028,19.31,-1038,-142,-757
24940,0,6380,-14156,3280,19.26,-1023,7,-724
24949,0,6780,-13748,2792,19.21,-1019,92,-648
24960,0,7228,-13736,2308,19.26,-1082,-22,-586
24969,0,7016,-13908,2196,19.26,-1139,20,-470
24978,0,6864,-13480,2452,19.26,-1173,-26,-346
24987,0,6604,-13528,2820,19.17,-1287,-39,-264
24996,0,6848,-13700,2804,19.17,-1397,-269,-197
25005,0,7292,-13276,2816,19.12,-1494,-618,-148
25015,0,7228,-13656,3192,19.31,-1636,-968,-188
25024,0,7132,-14244,2928,19.31,-1680,-1267,-207
25035,0,6568,-15408,2992,19.26,-1845,-1389,-338
25044,0,6892,-16216,2856,19.17,-2070,-1491,-512
25053,0,6744,-16844,3092,19.26,-2239,-1159,-739
25063,0,6312,-18144,3496,19.21,-2548,-725,-1232
25084,0,8364,-18112,2620,19.17,-2490,661,-2207
25093,0,9416,-17880,2700,19.21,-2227,787,-2475
25103,0,9740,-17180,3028,19.26,-2077,600,-2623
25112,0,9808,-16492,2704,19.21,-1930,455,-2605
25123,0,9752,-15428,1844,19.17,-1635,89,-2440
25132,0,10212,-15088,1952,19.21,-1343,-398,-2228
25142,0,10820,-15636,1820,19.26,-812,-541,-1869
25152,0,10088,-15252,2144,19.17,-631,-1072,-1662
25161,0,9192,-14780,2712,19.21,-688,-1269,-1458
25171,0,8700,-14624,2828,19.17,-702,-1166,-1321
25180,0,8248,-14228,2596,19.35,-767,-1169,-1257
25189,0,8104,-13884,2988,19.35,-862,-1098,-1304
25201,0,8244,-14180,2848,19.17,-909,-1023,-1294
25210,0,8208,-14200,2516,19.21,-999,-902,-1294
25219,0,8260,-14204,1988,19.17,-1062,-799,-1268
25228,0,8276,-13668,1740,19.21,-1054,-617,-1110
25237,0,7920,-13744,1528,19.17,-1165,-697,-1074
25246,0,7572,-13444,916,19.12,-1218,-937,-1065
25256,0,7764,-13304,1844,19.17,-1155,-882,-1075
25265,0,7880,-13396,1948,19.26,-1080,-1014,-1168
25274,0,8044,-13664,2368,19.21,-1027,-1391,-1241
25292,0,8048,-14040,1876,19.26,-718,-1802,-1211
25302,0,8416,-14604,2108,19.21,-697,-1882,-1163
25311,0,7992,-14636,2360,19.07,-678,-1786,-1025
25320,0,7760,-14812,2540,19.17,-756,-1581,-953
25329,0,7644,-14840,2664,19.21,-736,-1390,-844
25338,0,8208,-14912,2576,19.21,-770,-1301,-766
25360,0,8424,-14776,1568,19.17,-883,-1314,-653
25370,0,8964,-14308,1268,19.26,-794,-1232,-523
25381,0,9336,-13960,1180,19.21,-656,-1231,-411
25390,0,9712,-13772,1736,19.26,-571,-1285,-291
25400,0,9672,-13956,2020,19.17,-595,-1415,-137
25409,0,9400,-13828,1648,19.31,-710,-1411,-20
25418,0,9228,-14068,2172,19.21,-739,-1297,54
25427,0,8732,-14376,1864,19.17,-712,-1122,205
25436,0,8680,-14648,1192,19.12,-976,-887,418
25446,0,9576,-14492,240,19.17,-451,-599,640
25457,0,8932,-15104,1420,19.26,595,-183,844
25466,0,9504,-15236,2908,19.21,685,-768,801
25476,0,9548,-15524,2656,19.31,321,-1332,856
25485,0,8912,-15232,2804,19.26,-334,-1442,979
25494,0,6784,-16744,3048,19.21,-1460,-1181,1264
25503,0,9868,-15988,-3092,19.17,-2283,-907,1180
25512,0,7492,-14104,5360,19.26,-882,-82,877
25522,0,7704,-16132,788,19.21,-1091,-1141,380
25533,0,7404,-16512,1772,19.26,-1723,-1009,-177
25542,0,7120,-16120,1800,19.31,-1904,-57,-311
25552,0,7384,-15272,1672,19.17,-1778,407,-610
25562,0,8076,-14932,312,19.21,-1615,888,-721
25571,0,8856,-14132,1468,19.17,-1651,1352,-682
25580,0,10264,-14016,-1104,19.21,-2183,546,-643
25590,0,8484,-13672,1532,19.17,-1813,924,-606
25599,0,8020,-14408,1420,19.17,-1848,1232,-548
25608,0,8868,-15280,884,19.21,-1714,566,-546
25620,0,8660,-14748,1608,19.21,-2015,-49,-638
25642,0,9004,-14164,804,19.26,-2038,12,-751
25651,0,9248,-14080,1088,19.26,-1732,66,-845
25660,0,9092,-13968,1356,19.31,-1473,183,-827
25669,0,8952,-14080,1928,19.26,-1350,655,-765
25678,0,8444,-14676,1548,19.17,-1338,1162,-612
25688,0,8548,-14112,1776,19.21,-1386,1554,-460
25697,0,9052,-13592,1700,19.31,-1370,1681,-344
25709,0,10184,-12560,1804,19.26,-955,1316,-1
25718,0,10636,-12468,1408,19.17,-604,811,364
25727,0,9516,-13104,1852,19.21,-297,203,768
25736,0,10908,-12912,1412,19.31,21,-847,1332
25746,0,10788,-13148,2040,19.31,506,-1588,2031
25755,0,8376,-14540,2552,19.21,853,-1786,2436
25765,0,7648,-15464,2788,19.17,643,-2133,2833
25774,0,7436,-14716,2956,19.17,608,-2261,3142
25786,0,7024,-16276,4300,19.21,279,-2148,3207
25795,0,5628,-16636,3604,19.12,-204,-1940,2978
25804,0,10804,-11220,-168,19.21,-1537,-72,4205
25813,0,3760,-18516,4648,19.26,-1859,-877,2323
25823,0,5432,-17384,1428,19.17,-4473,380,1747
25832,0,4604,-16724,184,19.26,-5374,689,1416
25841,0,6188,-13896,1764,19.26,-5468,3137,1231
25850,0,8520,-13716,1224,19.21,-4772,3979,1091
25862,0,9576,-12964,-1820,19.21,-4298,4588,1480
25876,0,12052,-12780,-2648,19.21,-3699,5104,2190
25889,0,12208,-13136,-2392,19.12,-2994,5204,2883
25903,0,11692,-13080,-2072,19.21,-2834,3884,3316
25916,0,9444,-14444,-1132,19.26,-2275,4185,3573
25929,0,8644,-16276,-700,19.26,-1634,4868,3804
25941,0,6464,-17380,-248,19.26,-1383,5021,3815
25964,0,4304,-17288,4040,19.17,-2814,5483,3003
25978,0,5924,-16092,692,19.21,-3098,7393,2309
26000,0,6620,-16440,2724,19.26,-2899,7525,1710
26009,0,6348,-16592,504,19.26,-2593,8603,1935
26018,0,6712,-16132,3488,19.21,-1867,8709,2321
26027,0,10268,-14236,-4788,19.21,-2117,8218,2177
26036,0,10264,-13644,-560,19.26,-1099,7738,2604
26044,0,6096,-18152,4144,19.17,-762,7855,3047
26053,0,1572,-20140,7060,19.21,-1252,8390,3173
26062,0,3132,-16644,6572,19.26,-2467,7679,2794
26073,0,4776,-16340,2328,19.26,-2530,7703,2237
26082,0,4244,-16632,3736,19.26,-2517,6557,1850
26091,0,4324,-16720,2812,19.21,-2446,5913,1405
26101,0,6100,-14336,3680,19.21,-2302,6105,1290
26110,0,6328,-14560,1800,19.21,-1646,5316,1177
26119,0,7552,-14448,2500,19.26,-1239,3927,1154
26128,0,6632,-14876,3524,19.17,-774,3251,1376
26137,0,6084,-15560,4656,19.26,-808,2996,1577
26148,0,5520,-15808,3944,19.17,-863,2452,1698
26157,0,4828,-15884,3176,19.21,-804,1932,1602
26167,0,4364,-15272,2656,19.26,-655,1508,1492
26176,0,4124,-15124,2460,19.31,-480,952,1184
26185,0,4184,-14980,2012,19.21,-371,263,815
26194,0,4280,-15088,2200,19.26,-402,-414,432
26203,0,4244,-15172,2536,19.17,-413,-938,135
26212,0,4320,-15644,2272,19.21,-333,-1234,-55
26224,0,4576,-15888,1836,19.21,-208,-1705,-166
26233,0,4848,-15984,1912,19.12,-170,-2080,-233
26256,0,6944,-14976,1780,19.21,-69,-3474,-474
26265,0,7624,-14748,1564,19.17,172,-3983,-533
26274,0,7420,-14968,1240,19.21,468,-4331,-548
26283,0,6804,-15464,1720,19.17,599,-4616,-507
26292,0,5892,-15940,2556,19.21,611,-4565,-411
26302,0,5600,-15944,2596,19.31,468,-4292,-309
26311,0,5392,-15892,2532,19.26,308,-4041,-291
26323,0,1704,-20428,2124,19.21,25,-3146,102
26332,0,-9516,-26372,4756,19.17,-1047,-1084,88
26341,0,2100,-16196,4172,19.17,-2197,-720,-1201
26350,0,7148,-14440,0,19.21,-1726,-1029,-1559
26359,0,12588,-9964,368,19.26,-999,-487,-1035
26369,0,15716,-10568,-2180,19.26,-320,-17,-856
26379,0,14264,-14020,1908,19.21,294,36,347
26388,0,11960,-16728,6512,19.21,-173,-229,942
26399,0,7084,-17416,1944,19.26,-402,915,1505
26409,0,3824,-18100,1928,19.26,-1015,1121,1223
26418,0,4088,-17632,2956,19.21,-1323,620,1023
26427,0,4444,-17704,3224,19.26,-1711,-225,521
26436,0,5032,-16992,1428,19.21,-2089,152,-150
26445,0,4572,-16236,100,19.21,-1858,823,-576
26455,0,2712,-16992,400,19.26,-1568,1601,-1098
26464,0,2120,-17328,1664,19.17,-1333,1951,-1618
26475,0,4292,-16792,2816,19.17,-1638,2545,-2245
26484,0,5484,-16352,1932,19.31,-1779,2919,-2516
26494,0,6188,-16104,1560,19.17,-1759,3519,-2539
26503,0,5884,-16372,444,19.26,-1694,3907,-2452
26512,0,5652,-16980,-260,19.21,-1658,4528,-2142
26534,0,6068,-16428,988,19.21,-2203,5518,-1506
26543,0,6952,-15932,-668,19.26,-2384,5496,-1276
26552,0,10100,-10868,-800,19.26,-1925,5092,-949
26564,0,10068,-12068,-1496,19.26,-1264,4497,-242
26573,0,8884,-12556,-132,19.17,-962,3661,148
26582,0,7024,-13996,1428,19.17,-790,2674,567
26592,0,4376,-15064,3360,19.21,-1071,2155,769
26601,0,3100,-15844,3128,19.26,-1421,2038,992
26610,0,1540,-15256,3328,19.21,-1722,1638,958
26619,0,1096,-14996,3620,19.17,-1753,1298,903
26628,0,828,-15236,3764,19.17,-1724,1322,707
26638,0,1296,-14568,3196,19.21,-1611,1162,426
26656,0,1896,-15632,3784,19.21,-1183,600,-392
26666,0,2576,-16024,3528,19.17,-1096,575,-700
26675,0,2772,-15916,2948,19.17,-1066,-21,-1014
26684,0,3796,-15448,2428,19.21,-977,-739,-1284
26693,0,4816,-15132,2484,19.26,-785,-1346,-1283
26702,0,7348,-15860,2604,19.21,-508,-1938,-1208
26711,0,7480,-15424,2616,19.12,-418,-2838,-1108
26720,0,7660,-15720,2484,19.26,-585,-3489,-1018
26732,0,6808,-15980,2316,19.26,-907,-3893,-1006
26741,0,6160,-16052,2220,19.21,-1143,-3932,-931
26750,0,6604,-15984,1864,19.17,-1353,-3762,-926
26759,0,6352,-15824,1432,19.21,-1521,-3223,-904
26769,0,6632,-15808,1724,19.21,-1617,-2706,-790
26778,0,7064,-16068,1204,19.26,-1621,-2090,-616
26789,0,7100,-16268,1992,19.17,-1639,-1633,-575
26811,0,7256,-16740,1576,19.12,-1578,-936,-414
26823,0,7128,-16424,1820,19.26,-1448,-805,-412
26832,0,6484,-16672,1992,19.21,-1335,-708,-510
26841,0,5732,-16728,1608,19.31,-1147,-615,-579
26850,0,5416,-17040,1752,19.17,-949,-672,-643
26859,0,5096,-17120,2168,19.31,-652,-850,-599
26869,0,5056,-16660,2000,19.17,-455,-1523,-726
26878,0,5412,-16020,2252,19.26,-286,-2374,-761
26887,0,6428,-15864,1824,19.21,-274,-2845,-684
26896,0,6068,-14872,1992,19.21,-405,-3176,-495
26908,0,6588,-13476,980,19.17,-731,-3520,-329
26917,0,7156,-12864,828,19.17,-995,-3569,-161
26926,0,6568,-13488,600,19.17,-1303,-3352,-68
26936,0,5952,-13980,20,19.21,-1613,-2678,161
26945,0,4976,-14200,596,19.21,-1866,-1769,232
26954,0,5328,-14660,1260,19.26,-2086,-1043,76
26963,0,5588,-14840,-132,19.21,-2289,-26,-43
26973,0,6180,-15416,144,19.31,-2293,671,-194
26984,0,6808,-15496,556,19.21,-2247,1179,-388
26994,0,6964,-16136,1352,19.21,-2108,1431,-476
27003,0,7072,-16160,1720,19.26,-1989,1634,-506
27012,0,7408,-16868,1980,19.21,-1706,1634,-421
27021,0,7244,-17052,2104,19.26,-1506,1207,-330
27031,0,6696,-17220,1776,19.31,-1328,896,-356
27040,0,6648,-16484,1660,19.21,-1323,621,-515
27049,0,6328,-16244,1440,19.17,-1388,697,-648
27062,0,5696,-16012,1104,19.21,-1459,742,-765
27071,0,5360,-15884,1536,19.17,-1620,307,-900
27093,0,5920,-15388,1068,19.21,-1778,44,-908
27103,0,6092,-15424,1208,19.21,-1839,-84,-1004
27112,0,6300,-15636,928,19.17,-1910,-28,-1100
27121,0,6380,-15524,808,19.21,-1837,183,-1158
27130,0,6688,-15688,892,19.26,-1761,367,-1178
27140,0,6668,-15644,960,19.17,-1694,597,-1232
27152,0,6692,-15536,1108,19.26,-1676,905,-1353
27161,0,6896,-15580,1116,19.26,-1667,1156,-1348
27170,0,7200,-15376,1092,19.26,-1765,1381,-1307
27179,0,7044,-15592,904,19.17,-1666,1488,-1267
27189,0,7056,-15316,888,19.17,-1560,1552,-1167
27198,0,6624,-15620,776,19.21,-1417,1487,-1150
27208,0,6244,-15872,1112,19.17,-1343,1286,-1047
27217,0,5912,-16624,1212,19.26,-1274,989,-1051
27226,0,5856,-16076,1208,19.26,-1351,777,-999
27238,0,5860,-16016,916,19.12,-1207,263,-839
27251,0,6536,-15532,1188,19.26,-1004,-253,-724
27265,0,6128,-15856,1680,19.26,-965,-844,-617
27279,0,6144,-15984,1276,19.21,-1074,-1142,-547
27292,0,5940,-15672,1132,19.17,-974,-1117,-445
27304,0,5904,-15288,780,19.26,-932,-1285,-505
27316,0,6096,-15360,1084,19.26,-873,-1269,-553
27329,0,6412,-15380,1124,19.17,-778,-1304,-565
27350,0,6740,-15916,704,19.26,-786,-1125,-513
27358,0,6428,-16236,536,19.21,-751,-1024,-449
27367,0,6448,-16120,728,19.21,-665,-1008,-424
27376,0,6076,-16780,1360,19.21,-569,-1183,-433
27385,0,6308,-16816,1168,19.17,-555,-1421,-435
27393,0,5248,-16912,1116,19.35,-622,-1584,-518
27415,0,3664,-19056,288,19.26,-1508,-1087,-1008
27424,0,6284,-17724,492,19.21,-2318,-680,-1364
27435,0,8236,-18252,-16,19.17,-2919,-27,-1757
27444,0,7416,-15084,-816,19.26,-3548,-101,-1924
27453,0,7696,-15764,776,19.17,-3287,821,-1860
27463,0,9068,-14332,-540,19.21,-3270,539,-1820
27472,0,10972,-14344,-840,19.26,-2913,1076,-1513
27481,0,9884,-14808,-1628,19.21,-2664,1277,-1207
27490,0,9300,-15232,-1096,19.26,-2165,1589,-871
27499,0,9776,-13808,-2200,19.17,-1946,1354,-736
27511,0,8792,-14264,-1216,19.21,-1118,399,-524
27520,0,8156,-14584,228,19.17,-715,-195,-448
27529,0,6996,-15248,260,19.31,-404,-262,-476
27538,0,5976,-16008,1036,19.31,-538,-418,-686
27547,0,4772,-16844,1936,19.17,-779,-604,-1046
27556,0,5024,-16412,1784,19.21,-1100,-455,-1469
27565,0,5420,-15684,1752,19.17,-1050,-476,-1508
27574,0,6308,-15192,1592,19.17,-950,-760,-1543
27584,0,5976,-16120,476,19.21,-353,-727,-1352
27595,0,4556,-16804,268,19.21,-589,-1076,-1712
27604,0,5408,-16364,1916,19.21,-544,-1157,-2001
27613,0,5084,-16732,3132,19.12,-746,-785,-2107
27623,0,6020,-15868,1236,19.26,-933,-1278,-2464
27632,0,5648,-8888,1468,19.26,-604,-627,-1742
27641,0,7764,-10304,-5592,19.17,3045,-1528,-167
27650,0,7512,-14012,-2728,19.21,2871,-2831,583
27659,0,6868,-15916,2200,19.31,2832,-6404,392
27671,0,4160,-18708,3492,19.26,1294,-6872,-241
27693,0,5092,-18340,2740,19.21,-617,-6804,-1916
27702,0,8840,-16856,1588,19.31,-1025,-7141,-2377
27711,0,13200,-17092,2228,19.26,-1032,-6691,-2608
27720,0,14864,-17424,632,19.21,-1461,-5513,-2749
27729,0,15152,-18404,1520,19.21,-1933,-4168,-3097
27739,0,13052,-19764,3064,19.21,-2531,-1700,-3167
27748,0,14196,-17628,892,19.26,-3230,1527,-3130
27759,0,10636,-17760,-516,19.21,-2963,4448,-2932
27768,0,7608,-17632,-916,19.26,-3005,5654,-3318
27777,0,5440,-16552,-2472,19.17,-2831,5947,-3809
27786,0,7276,-16092,-1456,19.31,-2155,6298,-3987
27796,0,6628,-15788,-868,19.26,-1757,7438,-4137
27805,0,7012,-14784,492,19.21,-1131,6852,-4317
27814,0,6476,-14332,1260,19.26,-779,5637,-4535
27823,0,6240,-13472,-568,19.21,-360,4239,-4475
27835,0,6660,-12212,-568,19.17,-392,1990,-4077
27844,0,9392,-12636,-592,19.31,60,82,-3583
27853,0,8000,-12400,1220,19.17,-130,-350,-3000
27862,0,5916,-10736,144,19.21,-298,-499,-2550
27871,0,6024,-11192,-912,19.21,-211,-1262,-2078
27880,0,4712,-10884,-548,19.26,22,-1860,-1833
27890,0,4800,-10996,-252,19.21,212,-1873,-1786
27899,0,3196,-10864,-260,19.17,348,-2295,-1652
27908,0,4352,-11172,-1060,19.26,578,-2865,-1623
27919,0,3868,-11568,-32,19.17,936,-3466,-1315
27929,0,5708,-13304,688,19.21,1238,-3776,-1401
27938,0,6684,-13392,1084,19.17,1158,-3514,-1569
27947,0,5760,-12892,384,19.21,826,-3262,-1270
27969,0,6872,-14132,780,19.26,844,-4229,-565
27978,0,5932,-14572,1404,19.26,609,-4474,-24
27987,0,6740,-14148,756,19.31,392,-4939,219
27996,0,7224,-14272,228,19.21,246,-5468,611
28029,0,10388,-15628,-1520,19.21,673,-6721,1697
28038,0,11128,-16580,-648,19.21,350,-6573,1783
28047,0,10368,-15696,1908,19.26,-668,-6278,1669
28057,0,9112,-15064,248,19.26,-1063,-6077,1042
28066,0,8248,-16040,1056,19.21,-867,-5642,514
28075,0,9748,-17280,1792,19.26,-1275,-5471,43
28084,0,7212,-17432,-832,19.21,-2553,-4726,-384
28093,0,10592,-15868,-792,19.17,-1519,-1433,-810
28105,0,10616,-15512,684,19.21,-995,-531,-1004
28114,0,10872,-15404,1132,19.21,-1396,337,-1085
28123,0,10968,-14820,652,19.26,-1694,564,-1232
28132,0,10760,-14508,-628,19.12,-1685,796,-1279
28142,0,11072,-14716,-1836,19.21,-1536,1123,-1279
28151,0,11216,-14176,-2516,19.26,-1340,1579,-1173
28160,0,11840,-13632,-1144,19.21,-1279,1999,-873
28169,0,11712,-13332,-232,19.21,-1270,2597,-567
28181,0,11256,-13324,-176,19.21,-1323,2811,-308
28190,0,10636,-13824,-196,19.26,-1460,2517,-158
28199,0,10008,-14112,200,19.21,-1497,2697,-27
28208,0,9268,-14148,-72,19.26,-1560,3064,94
28218,0,8588,-14672,160,19.26,-1633,3127,208
28227,0,8296,-15088,112,19.02,-1758,3096,153
28250,0,7408,-15276,792,19.21,-2035,2483,-115
28259,0,8380,-15364,1244,19.26,-2255,1864,-171
28268,0,8368,-15216,1260,19.26,-2473,1722,-218
28280,0,8564,-15320,760,19.21,-2611,1859,-210
28289,0,7904,-15312,460,19.12,-2760,2096,-248
28298,0,7868,-15200,-328,19.26,-2838,2523,-249
28307,0,7232,-15336,-1236,19.21,-2889,2523,-436
28317,0,7672,-15344,-780,19.26,-2954,2446,-503
28326,0,7768,-15088,-72,19.12,-3119,2654,-574
28335,0,8068,-14984,-600,19.17,-3117,2831,-613
28344,0,8424,-14780,-692,19.17,-3043,3053,-643
28356,0,8924,-14584,-884,19.17,-2960,2993,-585
28365,0,9324,-14524,-696,19.17,-2800,2834,-441
28374,0,9744,-14652,-900,19.21,-2590,2608,-219
28383,0,9752,-14404,-684,19.17,-2490,2262,12
28393,0,9696,-14464,-1064,19.21,-2357,1983,172
28402,0,9220,-14204,-1068,19.31,-2238,1636,379
28411,0,8576,-14072,-996,19.26,-2188,1512,517
28421,0,12720,-13892,768,19.21,-2551,715,641
28433,0,5272,-14460,896,19.17,-1569,2256,752
28442,0,6024,-15220,516,19.26,-1789,1637,805
28451,0,6244,-15372,36,19.17,-1969,1794,405
28461,0,5952,-14752,260,19.12,-2114,952,164
28470,0,7536,-14612,-712,19.31,-1903,850,46
28479,0,7980,-14584,-848,19.17,-1750,922,66
28488,0,8372,-14544,-744,19.17,-1517,990,162
28498,0,8324,-14624,-544,19.26,-1431,636,240
28509,0,8548,-14848,-504,19.31,-1344,-52,326
28531,0,8900,-14884,-624,19.21,-1295,-1126,489
28540,0,9196,-14376,-548,19.21,-1228,-1430,618
28549,0,9640,-14368,-632,19.31,-1080,-1660,804
28561,0,10168,-14156,-1364,19.12,-835,-1603,1061
28571,0,10056,-14604,-1424,19.17,-483,-1105,1241
28580,0,10596,-14920,-1624,19.31,-189,-636,1490
28589,0,10844,-14516,-1020,19.21,83,65,1890
28599,0,10056,-14728,-2336,19.31,227,475,2092
28611,0,8524,-14440,-1732,19.21,447,514,2199
28624,0,8436,-14984,-1096,19.31,494,182,2216
28638,0,9228,-15028,-1660,19.17,417,-295,2263
28662,0,9948,-14344,-1616,19.21,903,242,3278
28673,0,11308,-14040,-1964,19.21,883,238,3822
28686,0,10016,-14652,-204,19.21,854,724,4444
28697,0,7696,-14696,-1780,19.26,1095,1906,4842
28710,0,5288,-16220,2152,19.21,736,1668,4923
28732,0,3044,-17036,5012,19.26,-742,2124,4168
28741,0,3648,-16136,3564,19.21,-1672,2439,3697
28749,0,3812,-15100,2208,19.21,-2242,3106,3254
28758,0,2084,-15220,1220,19.21,-2639,3734,2759
28767,0,2816,-15768,2696,19.31,-2966,3820,2235
28776,0,2488,-15636,3328,19.26,-3301,3779,1748
28784,0,3092,-15216,1800,19.35,-3775,3723,1025
28793,0,3604,-15028,2576,19.26,-3798,3355,440
28804,0,5216,-14972,1476,19.17,-3838,2629,-405
28813,0,3124,-13864,2412,19.26,-3481,2332,-828
28822,0,5976,-14448,-468,19.26,-3619,1539,-1410
28831,0,4376,-14428,2244,19.21,-3416,764,-1783
28840,0,5964,-13856,-592,19.21,-3106,457,-2055
28863,0,5684,-13880,-2980,19.26,-952,-988,-1833
28873,0,5784,-15696,-324,19.21,-712,-1543,-1771
28882,0,4576,-16428,-100,19.21,-738,-2062,-1770
28893,0,4532,-15800,-952,19.21,-536,-1874,-1671
28902,0,4664,-16616,-280,19.35,-321,-2470,-1755
28911,0,4776,-16636,476,19.26,-368,-2843,-1858
28920,0,4820,-16804,116,19.17,-679,-3030,-2030
28929,0,5072,-16736,408,19.26,-969,-3035,-2201
28939,0,5468,-16284,644,19.21,-1277,-3160,-2409
28948,0,5916,-16048,796,19.21,-1478,-3302,-2592
28957,0,6208,-15724,1000,19.21,-1713,-3346,-2683
28966,0,6716,-15348,272,19.26,-1765,-3260,-2678
28978,0,7184,-14844,-288,19.26,-1687,-3249,-2562
28987,0,7292,-14556,-464,19.21,-1543,-3276,-2396
28996,0,6788,-14304,-308,19.21,-1325,-3156,-2165
29005,0,7704,-14932,72,19.26,-1254,-3530,-2013
29014,0,7532,-14492,-1404,19.17,-1391,-3913,-1996
29023,0,7608,-14408,-1236,19.26,-1383,-4259,-1825
29032,0,8112,-14804,-1200,19.21,-1134,-4068,-1656
29042,0,7732,-15020,-1824,19.26,-1152,-4123,-1596
29053,0,9752,-14896,-1336,19.17,-1201,-3729,-1466
29062,0,9792,-15924,-1424,19.12,-1373,-3147,-1327
29071,0,10040,-14912,-504,19.26,-1484,-2397,-1232
29080,0,10212,-15220,-1104,19.31,-1319,-1793,-1168
29089,0,10788,-15476,-1712,19.12,-1490,-1206,-1060
29098,0,10756,-15460,-1696,19.31,-1478,-486,-1093
29107,0,9892,-14956,-980,19.21,-1450,-76,-1106
29117,0,12336,-14812,-2680,19.35,-1519,-223,-1027
29141,0,12656,-15788,-2148,19.21,-638,1279,48
29150,0,11852,-16000,-1744,19.17,-516,1924,266
29159,0,10616,-16256,-2488,19.21,-723,2270,278
29168,0,9712,-16464,-1844,19.26,-802,2593,259
29177,0,8848,-16484,-1928,19.17,-906,2836,282
29186,0,9096,-16364,-2224,19.21,-709,3148,334
29195,0,9340,-15868,-584,19.21,-468,3918,590
29204,0,8772,-15712,-1256,19.17,-361,4701,577
29216,0,7620,-15440,-1712,19.21,-115,4578,581
29225,0,7316,-15588,-2076,19.07,74,4481,433
29234,0,7044,-15800,-2356,19.26,247,4590,251
29243,0,6696,-15372,-2268,19.21,429,4682,-28
29252,0,6396,-15348,-2644,19.17,672,4327,-270
29262,0,6416,-15200,-2080,19.31,944,4001,-561
29271,0,6716,-15248,-1452,19.17,1060,3628,-839
29280,0,6740,-15076,-1012,19.26,1086,3184,-1033
29289,0,6684,-15456,-424,19.21,1046,2840,-1184
29300,0,7432,-15832,48,19.26,857,2690,-1262
29310,0,7828,-16004,-196,19.21,745,2611,-1296
29319,0,8116,-16036,-288,19.26,577,2592,-1339
29328,0,7984,-16036,-340,19.35,445,2376,-1359
29337,0,7716,-15736,-548,19.21,253,1866,-1442
29346,0,7676,-15772,-536,19.26,280,1312,-1536
29355,0,7520,-15648,-376,19.26,287,1046,-1672
29364,0,7344,-15648,-384,19.21,379,881,-1748
29383,0,7620,-15580,336,19.17,254,800,-1946
29392,0,7684,-15480,60,19.12,258,926,-2065
29414,0,8140,-14972,196,19.17,301,1388,-2175
29423,0,8260,-14768,376,19.21,252,1478,-2175
29432,0,8500,-14484,676,19.35,188,1453,-2187
29441,0,8608,-14208,992,19.26,58,1321,-2126
29451,0,8536,-14444,1052,19.26,-112,1282,-2093
29460,0,8644,-14356,1072,19.21,-318,1192,-2042
29472,0,8616,-14004,956,19.17,-464,1336,-1808
29481,0,8912,-13840,928,19.26,-550,1378,-1622
29490,0,8640,-13772,1080,19.21,-636,1464,-1375
29499,0,8592,-13732,1416,19.31,-787,1627,-1179
29509,0,8084,-13748,1488,19.26,-1007,1741,-1019
29518,0,8076,-14144,1084,19.26,-1111,1747,-844
29527,0,7444,-14104,1144,19.26,-1406,1861,-919
29536,0,7356,-14088,652,19.31,-1462,2009,-843
29545,0,7468,-14240,600,19.26,-1493,2062,-856
29557,0,7672,-14556,160,19.26,-1380,2075,-874
29566,0,7872,-14620,56,19.31,-1288,1982,-853
29576,0,8228,-14712,-144,19.07,-1312,1731,-766
29585,0,8308,-14932,92,19.12,-1246,1354,-798
29594,0,8328,-15164,-140,19.26,-1241,1073,-772
29603,0,8296,-15176,-352,19.17,-1257,991,-781
29612,0,8204,-15124,-320,19.21,-1238,912,-738
29622,0,8408,-15280,72,19.26,-1184,814,-732
29633,0,8340,-15328,452,19.26,-1185,792,-720
29642,0,8220,-15160,232,19.26,-1158,837,-762
29651,0,8036,-15040,76,19.12,-1025,953,-757
29661,0,8008,-14968,-484,19.21,-954,1146,-841
29670,0,7980,-14572,1096,19.21,-922,1062,-881
29692,0,7976,-14532,1184,19.21,-1308,981,-1059
29701,0,8016,-14528,940,19.31,-1416,1103,-1185
29711,0,8360,-13940,340,19.17,-1400,1322,-1203
29722,0,8328,-13840,68,19.21,-1177,1572,-1072
29732,0,8940,-13684,3512,19.26,-1112,1350,-931
29741,0,8272,-14332,-404,19.21,-1228,1583,-1089
29750,0,8016,-14256,284,19.26,-1216,1472,-1122
29760,0,8008,-14372,-276,19.26,-1125,1511,-1226
29769,0,8288,-14684,-272,19.26,-972,1475,-1275
29779,0,8400,-14772,-256,19.26,-893,1294,-1364
29788,0,8512,-14832,248,19.31,-875,915,-1485
29800,0,8604,-14932,704,19.21,-876,535,-1574
29809,0,8916,-14968,728,19.26,-1003,179,-1569
29819,0,9292,-14740,768,19.31,-1006,-67,-1519
29828,0,8944,-14480,788,19.26,-960,-249,-1414
29837,0,9052,-14388,364,19.26,-804,-291,-1321
29847,0,8724,-14284,820,19.17,-747,-302,-1293
29856,0,8632,-14160,1052,19.26,-729,-220,-1264
29866,0,8820,-13720,1176,19.31,-795,-128,-1222
29875,0,9032,-13632,780,19.31,-797,-34,-1140
29887,0,9176,-13812,704,19.26,-745,122,-1012
29896,0,9320,-13924,872,19.35,-776,188,-904
29906,0,9196,-14200,1160,19.26,-931,200,-842
29915,0,9228,-14504,1720,19.21,-1153,174,-853
29925,0,8724,-14616,716,19.26,-1284,344,-893
29934,0,10240,-14516,1064,19.26,-1389,604,-1004
29943,0,10164,-14568,356,19.35,-1231,755,-918
29953,0,10288,-14576,448,19.26,-1101,918,-725
29978,0,9616,-14488,836,19.17,-1141,785,-399
29991,0,9096,-14476,1044,19.35,-1118,764,-293
30005,0,8892,-14520,1056,19.26,-1270,623,-290
30019,0,8932,-14488,796,19.21,-1398,512,-381
30032,0,8952,-14040,608,19.17,-1409,578,-433
30045,0,9200,-14116,572,19.17,-1366,587,-453
30057,0,9256,-14344,644,19.17,-1330,559,-385
30071,0,9312,-14292,980,19.21,-1365,471,-335
30092,0,8860,-14284,516,19.26,-1247,512,-466
30101,0,8824,-14192,364,19.26,-1162,553,-522
30110,0,9040,-14280,404,19.26,-1101,552,-544
30118,0,9184,-14172,420,19.26,-1038,513,-557
30127,0,9456,-14212,348,19.31,-992,408,-553
30136,0,9704,-14380,372,19.21,-985,308,-467
30145,0,9644,-14336,704,19.21,-940,204,-497
30154,0,9740,-14396,736,19.26,-904,169,-473
30165,0,9588,-14436,920,19.26,-938,200,-473
30174,0,9704,-14380,1052,19.26,-1034,249,-452
30183,0,9736,-14396,1208,19.26,-1108,307,-428
30192,0,9596,-14436,1120,19.26,-1225,418,-393
30201,0,9668,-14524,756,19.31,-1273,508,-361
30210,0,9576,-14448,748,19.31,-1221,713,-347
30219,0,9628,-14256,420,19.21,-1211,867,-331
30228,0,9616,-14148,236,19.31,-1134,1016,-333
30237,0,9484,-14208,404,19.21,-1074,1039,-345
30249,0,9092,-14044,564,19.26,-1075,1016,-402
30258,0,8964,-14124,608,19.26,-1119,956,-468
30267,0,8840,-14124,972,19.31,-1244,876,-521
30276,0,8892,-14176,940,19.21,-1410,780,-594
30298,0,9528,-14116,404,19.21,-1508,923,-590
30307,0,9668,-14148,484,19.17,-1462,915,-465
30316,0,9520,-14364,596,19.31,-1452,847,-366
30326,0,9220,-14360,720,19.21,-1462,728,-314
30337,0,8904,-14400,764,19.26,-1592,586,-325
30347,0,8764,-14484,696,19.31,-1732,438,-425
30356,0,8832,-14428,656,19.17,-1809,397,-528
30365,0,9036,-14232,232,19.21,-1779,442,-591
30374,0,9176,-14400,-16,19.26,-1645,545,-657
30383,0,9472,-14396,272,19.26,-1549,682,-609
30392,0,9444,-14392,60,19.26,-1444,606,-534
30401,0,9664,-14468,452,19.26,-1435,506,-547
30413,0,9584,-14448,576,19.26,-1426,382,-494
30422,0,9888,-14428,376,19.21,-1402,313,-377
30431,0,10128,-14352,176,19.31,-1351,346,-238
30440,0,9816,-14232,416,19.17,-1283,138,-63
30449,0,9664,-14456,656,19.26,-1377,-22,55
30458,0,9288,-14400,652,19.31,-1469,-156,25
30467,0,9196,-14548,1256,19.21,-1591,-138,15
30476,0,9328,-14320,688,19.21,-1604,-63,-5
30488,0,9312,-14260,208,19.17,-1612,13,-4
30497,0,9016,-14144,520,19.26,-1710,184,23
30506,0,8560,-13844,252,19.31,-1769,445,72
30515,0,8448,-13920,312,19.26,-1759,749,54
30524,0,8480,-13952,368,19.26,-1699,1034,15
30533,0,8816,-13968,184,19.21,-1722,1301,-9
30543,0,9280,-14116,48,19.26,-1782,1633,-21
30552,0,9768,-14356,-288,19.21,-1640,1628,27
30583,0,9544,-14680,80,19.31,-1140,640,330
30594,0,8920,-14736,116,19.12,-928,372,344
30604,0,8404,-14808,740,19.21,-664,234,311
30613,0,8768,-14716,812,19.31,-501,277,210
30622,0,8836,-14768,1316,19.26,-415,202,157
30631,0,8980,-14356,832,19.35,-296,290,89
30641,0,9020,-14756,1216,19.26,-240,-80,-31
30650,0,9188,-14724,1176,19.17,-179,-434,-85
30659,0,9632,-14652,1868,19.26,-209,-398,-68
30671,0,9644,-14156,1068,19.35,-152,-225,-148
30680,0,9736,-14132,1472,19.26,-215,-45,-214
30690,0,10008,-14408,1708,19.35,-443,180,-337
30699,0,10176,-14344,1184,19.26,-707,316,-389
30708,0,10312,-14096,1060,19.26,-931,435,-503
30718,0,10144,-13852,280,19.26,-987,1119,-636
30727,0,9844,-13948,-20,19.31,-1011,1811,-773
30736,0,9692,-13968,-1396,19.17,-871,2342,-935
30755,0,9324,-13328,-88,19.26,-759,2471,-1099
30764,0,9440,-13228,1344,19.21,-990,2456,-1271
30774,0,9428,-13084,1868,19.31,-1313,2183,-1321
30783,0,9144,-13104,1184,19.26,-1636,1975,-1453
30792,0,9020,-12996,1212,19.31,-1974,1634,-1479
30801,0,9136,-13328,1528,19.26,-2093,1731,-1589
30811,0,9256,-13248,1308,19.26,-2346,2074,-1653
30820,0,9300,-13236,936,19.17,-2606,2420,-1778
30832,0,9700,-12836,688,19.26,-2625,3024,-1685
30841,0,10136,-13192,1360,19.26,-2655,3988,-1630
30864,0,9604,-14420,-60,19.07,-2208,4842,-1366
30873,0,9364,-14256,-540,19.26,-1923,4795,-1344
30883,0,8920,-14228,1152,19.21,-1726,4552,-1433
30892,0,8920,-13844,756,19.21,-1826,4685,-1603
30901,0,9520,-13804,244,19.26,-1941,4700,-1680
30910,0,9416,-14080,1784,19.21,-2309,4675,-1788
30920,0,10584,-13888,2972,19.21,-2640,4569,-1909
30931,0,10492,-14196,1340,19.21,-2808,4562,-1944
30940,0,10724,-14116,1152,19.26,-2881,4418,-1797
30950,0,10564,-14008,1840,19.31,-2871,4459,-1680
30959,0,11300,-13516,684,19.21,-2787,4758,-1593
30968,0,10944,-13628,1088,19.31,-2550,5162,-1374
30977,0,12840,-13976,1720,19.17,-2429,5579,-1077
30986,0,10472,-14364,1648,19.26,-2492,5940,-1074
30996,0,9860,-13712,988,19.31,-2768,6227,-1063
31007,0,10420,-13688,932,19.21,-3092,6416,-1153
31016,0,10808,-13104,96,19.31,-3377,6498,-1193
31026,0,12080,-12980,-260,19.26,-3449,6584,-1004
31035,0,11892,-13632,1652,19.31,-3710,6335,-902
31044,0,11400,-13952,160,19.21,-3672,6146,-595
31053,0,11428,-14388,1164,19.26,-3528,5424,-329
31063,0,10972,-15252,1088,19.26,-3525,5001,61
31072,0,10588,-15288,1748,19.26,-3451,4605,427
31084,0,10220,-16452,1476,19.21,-3618,4260,761
31093,0,10348,-17844,2660,19.21,-3670,3815,1239
31102,0,12348,-16644,-868,19.21,-3885,4033,1433
31111,0,9520,-16484,-1412,19.17,-3568,3648,1499
31121,0,8612,-15272,-1944,19.31,-2664,3761,1569
31143,0,5420,-14200,-1156,19.31,-1454,3734,869
31152,0,5952,-14472,-440,19.26,-1375,3349,313
31161,0,7192,-14828,-28,19.26,-1462,2860,36
31173,0,8460,-14264,-516,19.31,-1726,2036,-186
31182,0,8568,-14820,-1488,19.17,-1529,1258,-204
31191,0,9028,-14560,-1048,19.31,-1249,531,-35
31200,0,8420,-14492,-1032,19.35,-934,-65,70
31210,0,7888,-14460,-1044,19.26,-663,-528,164
31219,0,8320,-14544,-880,19.26,-227,-990,368
31228,0,8328,-14560,-248,19.26,13,-1342,551
31237,0,8320,-14920,-84,19.21,136,-1724,640
31247,0,8480,-14940,-236,19.21,240,-2020,747
31258,0,8784,-14824,192,19.07,320,-2231,800
31268,0,9132,-14756,192,19.17,408,-2408,921
31277,0,9412,-14540,540,19.26,531,-2573,1011
31286,0,9212,-14508,1568,19.31,475,-2809,1088
31296,0,9716,-14148,1256,19.31,424,-2845,1266
31305,0,9056,-13976,1500,19.31,285,-2660,1330
31314,0,8996,-13668,1600,19.21,166,-2567,1352
31323,0,9096,-13568,2268,19.26,-4,-2348,1398
31336,0,9392,-13588,1972,19.26,-40,-1970,1565
31349,0,9096,-13752,1936,19.21,-239,-1644,1754
31362,0,8668,-13820,1788,19.26,-291,-1153,1945
31376,0,8628,-14108,1624,19.26,-308,-624,2121
31390,0,7984,-14464,616,19.21,-306,-331,2144
31402,0,7892,-14856,-40,19.12,-277,-241,1954
31414,0,7952,-14544,168,19.21,-271,-353,1830
31426,0,7892,-14540,204,19.21,-346,-678,1673
31447,0,7884,-14008,776,19.21,-353,-1092,1649
31469,0,7764,-13724,1596,19.26,-660,-1153,1513
31478,0,7968,-13656,1064,19.31,-782,-997,1511
31487,0,7980,-13304,1420,19.26,-858,-891,1513
31495,0,8124,-13184,68,19.26,-608,-721,1575
31504,0,8112,-13020,1436,19.26,-621,-652,1714
31513,0,8196,-13240,716,19.21,-459,-558,1812
31522,0,8500,-13008,-12,19.21,-390,-426,1926
31533,0,8784,-13708,324,19.21,-136,-674,1957
31542,0,8316,-14168,-452,19.26,-16,-1188,1823
31551,0,8604,-14128,772,19.17,-87,-2004,1798
31561,0,8636,-14312,792,19.21,-81,-2553,1623
31571,0,8496,-14452,924,19.17,-121,-3394,1487
31580,0,7916,-15112,880,19.26,-220,-3991,1326
31589,0,7696,-14876,1416,19.26,-275,-4502,1212
31598,0,7668,-15264,444,19.21,-105,-4735,1130
31608,0,7324,-15724,132,19.26,93,-4806,995
31619,0,7288,-16424,464,19.31,363,-4683,858
31628,0,7404,-16888,1024,19.26,581,-4617,781
31637,0,8012,-17136,996,19.21,679,-4484,651
31646,0,8368,-16668,1184,19.21,735,-4402,615
31656,0,8676,-16924,1184,19.31,762,-4315,572
31665,0,8900,-16816,864,19.31,899,-4095,619
31674,0,9004,-16520,1096,19.21,1056,-3885,661
31683,0,9268,-16156,1516,19.26,1077,-3665,689
31694,0,9568,-15728,1568,19.26,1060,-3294,796
